Time,ax,ay,az
42:00.0,-0.918,0.293,0.23
42:00.0,-0.898,0.297,0.238
42:00.0,-0.891,0.305,0.234
42:00.0,-0.887,0.305,0.223
42:00.0,-0.883,0.305,0.215
42:00.0,-0.887,0.305,0.211
42:00.1,-0.898,0.297,0.207
42:00.1,-0.902,0.301,0.207
42:00.1,-0.906,0.289,0.207
42:00.1,-0.906,0.277,0.203
42:00.1,-0.91,0.277,0.203
42:00.1,-0.914,0.266,0.199
42:00.1,-0.918,0.258,0.188
42:00.1,-0.93,0.25,0.191
42:00.1,-0.934,0.246,0.199
42:00.1,-0.93,0.242,0.203
42:00.2,-0.926,0.246,0.211
42:00.2,-0.922,0.25,0.215
42:00.2,-0.926,0.258,0.219
42:00.2,-0.93,0.266,0.215
42:00.2,-0.93,0.281,0.215
42:00.2,-0.926,0.297,0.211
42:00.2,-0.926,0.305,0.211
42:00.2,-0.922,0.313,0.211
42:00.2,-0.914,0.32,0.211
42:00.2,-0.914,0.324,0.211
42:00.3,-0.914,0.324,0.211
42:00.3,-0.91,0.328,0.211
42:00.3,-0.902,0.328,0.211
42:00.3,-0.902,0.324,0.207
42:00.3,-0.902,0.324,0.199
42:00.3,-0.898,0.324,0.195
42:00.3,-0.895,0.324,0.191
42:00.3,-0.895,0.316,0.195
42:00.3,-0.902,0.313,0.191
42:00.3,-0.906,0.305,0.199
42:00.4,-0.906,0.301,0.195
42:00.4,-0.91,0.297,0.199
42:00.4,-0.91,0.301,0.191
42:00.4,-0.91,0.297,0.195
42:00.4,-0.91,0.297,0.203
42:00.4,-0.914,0.293,0.203
42:00.4,-0.918,0.293,0.207
42:00.4,-0.918,0.293,0.207
42:00.4,-0.922,0.297,0.207
42:00.4,-0.922,0.297,0.211
42:00.5,-0.922,0.293,0.199
42:00.5,-0.926,0.293,0.195
42:00.5,-0.926,0.289,0.199
42:00.5,-0.926,0.289,0.191
42:00.5,-0.926,0.289,0.191
42:00.5,-0.922,0.289,0.203
42:00.5,-0.918,0.289,0.199
42:00.5,-0.918,0.285,0.199
42:00.5,-0.91,0.285,0.203
42:00.5,-0.906,0.289,0.207
42:00.6,-0.902,0.289,0.207
42:00.6,-0.906,0.301,0.203
42:00.6,-0.91,0.309,0.199
42:00.6,-0.91,0.305,0.195
42:00.6,-0.91,0.313,0.195
42:00.6,-0.918,0.313,0.191
42:00.6,-0.93,0.305,0.195
42:00.6,-0.93,0.301,0.199
42:00.6,-0.922,0.297,0.195
42:00.7,-0.918,0.289,0.191
42:00.7,-0.914,0.277,0.195
42:00.7,-0.91,0.27,0.199
42:00.7,-0.91,0.273,0.199
42:00.7,-0.914,0.273,0.199
42:00.7,-0.914,0.281,0.207
42:00.7,-0.91,0.285,0.207
42:00.7,-0.91,0.293,0.207
42:00.7,-0.906,0.297,0.211
42:00.7,-0.91,0.301,0.207
42:00.7,-0.91,0.301,0.207
42:00.8,-0.906,0.301,0.207
42:00.8,-0.906,0.305,0.211
42:00.8,-0.906,0.313,0.203
42:00.8,-0.91,0.309,0.195
42:00.8,-0.91,0.301,0.195
42:00.8,-0.914,0.305,0.191
42:00.8,-0.914,0.305,0.191
42:00.8,-0.922,0.301,0.188
42:00.8,-0.922,0.297,0.199
42:00.8,-0.922,0.293,0.203
42:00.9,-0.918,0.293,0.199
42:00.9,-0.914,0.285,0.207
42:00.9,-0.91,0.289,0.207
42:00.9,-0.91,0.289,0.211
42:00.9,-0.91,0.285,0.207
42:00.9,-0.91,0.289,0.207
42:00.9,-0.914,0.289,0.207
42:00.9,-0.918,0.297,0.211
42:00.9,-0.918,0.301,0.207
42:00.9,-0.914,0.309,0.203
42:01.0,-0.906,0.313,0.195
42:01.0,-0.906,0.316,0.195
42:01.0,-0.906,0.32,0.195
42:01.0,-0.906,0.316,0.199
42:01.0,-0.918,0.316,0.191
42:01.0,-0.914,0.309,0.195
42:01.0,-0.91,0.313,0.191
42:01.0,-0.91,0.309,0.199
42:01.0,-0.91,0.305,0.203
42:01.0,-0.906,0.309,0.207
42:01.1,-0.906,0.313,0.207
42:01.1,-0.906,0.316,0.207
42:01.1,-0.906,0.313,0.207
42:01.1,-0.91,0.313,0.203
42:01.1,-0.91,0.32,0.199
42:01.1,-0.906,0.32,0.199
42:01.1,-0.906,0.316,0.195
42:01.1,-0.906,0.313,0.191
42:01.1,-0.906,0.313,0.199
42:01.1,-0.906,0.305,0.195
42:01.2,-0.91,0.297,0.195
42:01.2,-0.914,0.297,0.199
42:01.2,-0.914,0.293,0.203
42:01.2,-0.914,0.289,0.207
42:01.2,-0.91,0.289,0.219
42:01.2,-0.91,0.285,0.223
42:01.2,-0.914,0.281,0.223
42:01.2,-0.922,0.281,0.23
42:01.2,-0.914,0.285,0.223
42:01.2,-0.914,0.289,0.219
42:01.3,-0.918,0.309,0.215
42:01.3,-0.918,0.32,0.211
42:01.3,-0.914,0.32,0.203
42:01.3,-0.91,0.328,0.195
42:01.3,-0.91,0.332,0.191
42:01.3,-0.902,0.332,0.195
42:01.3,-0.898,0.328,0.195
42:01.3,-0.898,0.328,0.195
42:01.3,-0.898,0.32,0.203
42:01.3,-0.895,0.313,0.207
42:01.4,-0.891,0.309,0.211
42:01.4,-0.898,0.301,0.211
42:01.4,-0.902,0.297,0.219
42:01.4,-0.902,0.281,0.227
42:01.4,-0.906,0.27,0.223
42:01.4,-0.906,0.262,0.223
42:01.4,-0.926,0.266,0.219
42:01.4,-0.934,0.262,0.23
42:01.4,-0.941,0.242,0.223
42:01.4,-0.93,0.234,0.211
42:01.5,-0.914,0.23,0.207
42:01.5,-0.898,0.234,0.211
42:01.5,-0.887,0.246,0.199
42:01.5,-0.887,0.258,0.195
42:01.5,-0.906,0.258,0.191
42:01.5,-0.91,0.273,0.191
42:01.5,-0.906,0.301,0.172
42:01.5,-0.898,0.328,0.152
42:01.5,-0.898,0.355,0.145
42:01.5,-0.898,0.371,0.137
42:01.6,-0.906,0.383,0.137
42:01.6,-0.91,0.395,0.152
42:01.6,-0.914,0.414,0.141
42:01.6,-0.918,0.43,0.133
42:01.6,-0.922,0.434,0.129
42:01.6,-0.93,0.418,0.125
42:01.6,-0.93,0.402,0.137
42:01.6,-0.93,0.387,0.148
42:01.6,-0.926,0.367,0.164
42:01.6,-0.918,0.344,0.176
42:01.7,-0.918,0.328,0.176
42:01.7,-0.918,0.32,0.172
42:01.7,-0.914,0.309,0.168
42:01.7,-0.91,0.297,0.172
42:01.7,-0.898,0.285,0.172
42:01.7,-0.891,0.277,0.168
42:01.7,-0.891,0.27,0.168
42:01.7,-0.898,0.262,0.172
42:01.7,-0.906,0.254,0.172
42:01.7,-0.91,0.254,0.176
42:01.8,-0.91,0.254,0.184
42:01.8,-0.918,0.254,0.191
42:01.8,-0.926,0.246,0.195
42:01.8,-0.93,0.25,0.199
42:01.8,-0.934,0.254,0.199
42:01.8,-0.938,0.266,0.188
42:01.8,-0.938,0.27,0.184
42:01.8,-0.93,0.277,0.18
42:01.8,-0.922,0.289,0.176
42:01.8,-0.918,0.297,0.172
42:01.9,-0.914,0.316,0.172
42:01.9,-0.91,0.324,0.168
42:01.9,-0.914,0.336,0.164
42:01.9,-0.91,0.344,0.164
42:01.9,-0.91,0.344,0.168
42:01.9,-0.91,0.34,0.172
42:01.9,-0.906,0.344,0.176
42:01.9,-0.906,0.34,0.176
42:01.9,-0.906,0.332,0.176
42:01.9,-0.91,0.328,0.176
42:02.0,-0.91,0.324,0.18
42:02.0,-0.91,0.32,0.18
42:02.0,-0.918,0.313,0.18
42:02.0,-0.926,0.301,0.18
42:02.0,-0.938,0.297,0.188
42:02.0,-0.93,0.293,0.191
42:02.0,-0.926,0.293,0.184
42:02.0,-0.922,0.297,0.18
42:02.0,-0.918,0.297,0.176
42:02.0,-0.914,0.293,0.172
42:02.1,-0.914,0.301,0.164
42:02.1,-0.918,0.305,0.168
42:02.1,-0.914,0.309,0.16
42:02.1,-0.914,0.316,0.16
42:02.1,-0.914,0.316,0.164
42:02.1,-0.914,0.316,0.164
42:02.1,-0.91,0.309,0.164
42:02.1,-0.91,0.301,0.164
42:02.1,-0.91,0.297,0.164
42:02.1,-0.914,0.293,0.168
42:02.2,-0.914,0.285,0.172
42:02.2,-0.918,0.277,0.176
42:02.2,-0.914,0.273,0.184
42:02.2,-0.914,0.27,0.188
42:02.2,-0.918,0.266,0.191
42:02.2,-0.922,0.266,0.191
42:02.2,-0.922,0.273,0.188
42:02.2,-0.922,0.285,0.18
42:02.2,-0.922,0.297,0.176
42:02.2,-0.922,0.305,0.176
42:02.3,-0.922,0.309,0.168
42:02.3,-0.914,0.316,0.164
42:02.3,-0.914,0.32,0.16
42:02.3,-0.914,0.328,0.16
42:02.3,-0.91,0.328,0.16
42:02.3,-0.91,0.328,0.16
42:02.3,-0.906,0.32,0.168
42:02.3,-0.906,0.309,0.172
42:02.3,-0.906,0.301,0.176
42:02.3,-0.914,0.293,0.176
42:02.4,-0.914,0.289,0.18
42:02.4,-0.922,0.273,0.176
42:02.4,-0.934,0.27,0.176
42:02.4,-0.938,0.27,0.18
42:02.4,-0.938,0.277,0.176
42:02.4,-0.941,0.285,0.176
42:02.4,-0.934,0.289,0.176
42:02.4,-0.918,0.301,0.18
42:02.4,-0.914,0.305,0.18
42:02.4,-0.91,0.309,0.176
42:02.5,-0.91,0.316,0.172
42:02.5,-0.91,0.316,0.168
42:02.5,-0.914,0.316,0.164
42:02.5,-0.91,0.316,0.168
42:02.5,-0.918,0.313,0.164
42:02.5,-0.914,0.309,0.168
42:02.5,-0.914,0.309,0.156
42:02.5,-0.918,0.297,0.16
42:02.5,-0.918,0.285,0.164
42:02.5,-0.918,0.281,0.172
42:02.6,-0.922,0.281,0.172
42:02.6,-0.918,0.273,0.18
42:02.6,-0.918,0.277,0.18
42:02.6,-0.918,0.277,0.18
42:02.6,-0.922,0.281,0.18
42:02.6,-0.922,0.285,0.18
42:02.6,-0.922,0.289,0.176
42:02.6,-0.922,0.297,0.176
42:02.6,-0.918,0.297,0.176
42:02.6,-0.914,0.305,0.172
42:02.7,-0.914,0.313,0.172
42:02.7,-0.914,0.32,0.176
42:02.7,-0.91,0.324,0.176
42:02.7,-0.902,0.328,0.176
42:02.7,-0.906,0.328,0.176
42:02.7,-0.91,0.324,0.176
42:02.7,-0.91,0.324,0.176
42:02.7,-0.914,0.324,0.172
42:02.7,-0.914,0.316,0.164
42:02.7,-0.922,0.309,0.164
42:02.8,-0.918,0.305,0.16
42:02.8,-0.922,0.297,0.16
42:02.8,-0.926,0.297,0.16
42:02.8,-0.926,0.293,0.16
42:02.8,-0.922,0.293,0.156
42:02.8,-0.918,0.289,0.156
42:02.8,-0.906,0.285,0.164
42:02.8,-0.898,0.289,0.172
42:02.8,-0.898,0.277,0.176
42:02.9,-0.902,0.273,0.184
42:02.9,-0.91,0.27,0.188
42:02.9,-0.918,0.273,0.188
42:02.9,-0.926,0.285,0.184
42:02.9,-0.934,0.289,0.184
42:02.9,-0.938,0.293,0.18
42:02.9,-0.941,0.297,0.176
42:02.9,-0.938,0.309,0.176
42:02.9,-0.938,0.316,0.172
42:02.9,-0.934,0.32,0.168
42:02.9,-0.926,0.324,0.16
42:03.0,-0.926,0.324,0.156
42:03.0,-0.922,0.324,0.16
42:03.0,-0.926,0.324,0.164
42:03.0,-0.918,0.324,0.164
42:03.0,-0.918,0.328,0.164
42:03.0,-0.906,0.32,0.172
42:03.0,-0.906,0.316,0.176
42:03.0,-0.91,0.305,0.176
42:03.0,-0.906,0.301,0.184
42:03.0,-0.906,0.301,0.184
42:03.1,-0.906,0.297,0.191
42:03.1,-0.914,0.293,0.191
42:03.1,-0.918,0.297,0.188
42:03.1,-0.922,0.297,0.18
42:03.1,-0.922,0.293,0.176
42:03.1,-0.922,0.297,0.176
42:03.1,-0.922,0.297,0.172
42:03.1,-0.918,0.297,0.176
42:03.1,-0.914,0.289,0.176
42:03.1,-0.91,0.293,0.18
42:03.2,-0.906,0.293,0.176
42:03.2,-0.906,0.293,0.168
42:03.2,-0.906,0.293,0.168
42:03.2,-0.91,0.289,0.168
42:03.2,-0.906,0.293,0.164
42:03.2,-0.906,0.293,0.168
42:03.2,-0.91,0.297,0.176
42:03.2,-0.914,0.297,0.176
42:03.2,-0.914,0.297,0.176
42:03.2,-0.918,0.297,0.176
42:03.3,-0.922,0.297,0.176
42:03.3,-0.926,0.297,0.176
42:03.3,-0.93,0.293,0.176
42:03.3,-0.934,0.293,0.18
42:03.3,-0.934,0.285,0.18
42:03.3,-0.93,0.285,0.176
42:03.3,-0.922,0.281,0.176
42:03.3,-0.918,0.277,0.18
42:03.3,-0.918,0.27,0.176
42:03.3,-0.918,0.27,0.176
42:03.4,-0.914,0.27,0.176
42:03.4,-0.91,0.273,0.18
42:03.4,-0.914,0.281,0.184
42:03.4,-0.914,0.289,0.18
42:03.4,-0.91,0.305,0.18
42:03.4,-0.91,0.316,0.176
42:03.4,-0.91,0.316,0.176
42:03.4,-0.914,0.32,0.172
42:03.4,-0.918,0.324,0.168
42:03.4,-0.922,0.324,0.172
42:03.5,-0.918,0.316,0.172
42:03.5,-0.914,0.305,0.176
42:03.5,-0.914,0.297,0.176
42:03.5,-0.922,0.297,0.172
42:03.5,-0.93,0.293,0.172
42:03.5,-0.93,0.281,0.176
42:03.5,-0.926,0.273,0.176
42:03.5,-0.922,0.266,0.176
42:03.5,-0.922,0.27,0.176
42:03.6,-0.93,0.273,0.18
42:03.6,-0.93,0.273,0.18
42:03.6,-0.922,0.277,0.184
42:03.6,-0.918,0.285,0.184
42:03.6,-0.914,0.289,0.184
42:03.6,-0.914,0.297,0.18
42:03.6,-0.918,0.297,0.18
42:03.6,-0.914,0.297,0.184
42:03.6,-0.918,0.305,0.184
42:03.6,-0.914,0.305,0.184
42:03.6,-0.918,0.297,0.18
42:03.7,-0.926,0.293,0.18
42:03.7,-0.93,0.293,0.18
42:03.7,-0.93,0.293,0.18
42:03.7,-0.922,0.289,0.176
42:03.7,-0.914,0.281,0.18
42:03.7,-0.914,0.277,0.184
42:03.7,-0.918,0.277,0.18
42:03.7,-0.918,0.277,0.18
42:03.7,-0.926,0.285,0.176
42:03.7,-0.926,0.289,0.176
42:03.8,-0.93,0.297,0.176
42:03.8,-0.922,0.309,0.176
42:03.8,-0.926,0.313,0.176
42:03.8,-0.922,0.313,0.18
42:03.8,-0.918,0.305,0.184
42:03.8,-0.914,0.297,0.188
42:03.8,-0.914,0.293,0.188
42:03.8,-0.918,0.289,0.184
42:03.8,-0.918,0.293,0.184
42:03.8,-0.918,0.285,0.184
42:03.9,-0.922,0.277,0.184
42:03.9,-0.922,0.281,0.184
42:03.9,-0.922,0.285,0.184
42:03.9,-0.926,0.285,0.184
42:03.9,-0.926,0.289,0.184
42:03.9,-0.926,0.289,0.188
42:03.9,-0.918,0.289,0.184
42:03.9,-0.918,0.297,0.18
42:03.9,-0.918,0.301,0.176
42:03.9,-0.918,0.305,0.172
42:04.0,-0.918,0.313,0.172
42:04.0,-0.914,0.313,0.172
42:04.0,-0.91,0.313,0.172
42:04.0,-0.91,0.305,0.172
42:04.0,-0.918,0.297,0.164
42:04.0,-0.914,0.281,0.176
42:04.0,-0.91,0.281,0.176
42:04.0,-0.91,0.27,0.184
42:04.0,-0.91,0.262,0.188
42:04.0,-0.91,0.27,0.184
42:04.1,-0.918,0.27,0.176
42:04.1,-0.926,0.266,0.176
42:04.1,-0.934,0.266,0.176
42:04.1,-0.938,0.27,0.172
42:04.1,-0.938,0.273,0.176
42:04.1,-0.93,0.273,0.18
42:04.1,-0.922,0.281,0.188
42:04.1,-0.918,0.289,0.188
42:04.1,-0.922,0.293,0.184
42:04.1,-0.926,0.297,0.184
42:04.2,-0.926,0.301,0.176
42:04.2,-0.918,0.309,0.176
42:04.2,-0.914,0.316,0.172
42:04.2,-0.914,0.316,0.172
42:04.2,-0.918,0.316,0.168
42:04.2,-0.918,0.309,0.164
42:04.2,-0.918,0.301,0.168
42:04.2,-0.918,0.297,0.168
42:04.2,-0.918,0.293,0.172
42:04.2,-0.914,0.281,0.176
42:04.3,-0.914,0.273,0.18
42:04.3,-0.918,0.266,0.184
42:04.3,-0.922,0.258,0.191
42:04.3,-0.93,0.254,0.191
42:04.3,-0.926,0.254,0.191
42:04.3,-0.926,0.258,0.188
42:04.3,-0.922,0.266,0.184
42:04.3,-0.926,0.281,0.18
42:04.3,-0.93,0.293,0.176
42:04.3,-0.934,0.305,0.172
42:04.4,-0.934,0.316,0.168
42:04.4,-0.93,0.324,0.16
42:04.4,-0.926,0.324,0.16
42:04.4,-0.922,0.32,0.16
42:04.4,-0.918,0.313,0.164
42:04.4,-0.914,0.309,0.16
42:04.4,-0.91,0.293,0.168
42:04.4,-0.91,0.289,0.172
42:04.4,-0.906,0.281,0.176
42:04.4,-0.91,0.277,0.176
42:04.5,-0.918,0.266,0.184
42:04.5,-0.922,0.258,0.188
42:04.5,-0.922,0.258,0.188
42:04.5,-0.918,0.258,0.188
42:04.5,-0.934,0.266,0.184
42:04.5,-0.926,0.27,0.188
42:04.5,-0.926,0.281,0.18
42:04.5,-0.926,0.289,0.176
42:04.5,-0.93,0.301,0.176
42:04.5,-0.93,0.313,0.18
42:04.6,-0.918,0.32,0.176
42:04.6,-0.91,0.324,0.172
42:04.6,-0.91,0.324,0.172
42:04.6,-0.906,0.324,0.172
42:04.6,-0.902,0.324,0.172
42:04.6,-0.898,0.32,0.172
42:04.6,-0.902,0.316,0.176
42:04.6,-0.906,0.305,0.176
42:04.6,-0.91,0.301,0.18
42:04.6,-0.918,0.293,0.18
42:04.7,-0.914,0.289,0.184
42:04.7,-0.914,0.277,0.188
42:04.7,-0.918,0.27,0.188
42:04.7,-0.922,0.27,0.184
42:04.7,-0.926,0.273,0.18
42:04.7,-0.934,0.273,0.18
42:04.7,-0.926,0.285,0.18
42:04.7,-0.926,0.297,0.176
42:04.7,-0.922,0.305,0.176
42:04.7,-0.918,0.313,0.176
42:04.8,-0.914,0.316,0.18
42:04.8,-0.91,0.316,0.18
42:04.8,-0.914,0.309,0.176
42:04.8,-0.914,0.305,0.176
42:04.8,-0.91,0.301,0.176
42:04.8,-0.906,0.297,0.176
42:04.8,-0.906,0.293,0.18
42:04.8,-0.914,0.293,0.176
42:04.8,-0.918,0.289,0.184
42:04.8,-0.918,0.277,0.184
42:04.9,-0.914,0.281,0.184
42:04.9,-0.914,0.285,0.18
42:04.9,-0.918,0.285,0.18
42:04.9,-0.926,0.285,0.18
42:04.9,-0.93,0.289,0.176
42:04.9,-0.93,0.293,0.18
42:04.9,-0.926,0.293,0.176
42:04.9,-0.926,0.293,0.176
42:04.9,-0.926,0.301,0.18
42:04.9,-0.926,0.309,0.188
42:05.0,-0.922,0.309,0.188
42:05.0,-0.918,0.309,0.184
42:05.0,-0.914,0.309,0.176
42:05.0,-0.914,0.305,0.176
42:05.0,-0.922,0.301,0.176
42:05.0,-0.922,0.305,0.176
42:05.0,-0.918,0.301,0.176
42:05.0,-0.91,0.297,0.176
42:05.0,-0.91,0.293,0.176
42:05.1,-0.91,0.293,0.176
42:05.1,-0.91,0.285,0.18
42:05.1,-0.91,0.281,0.18
42:05.1,-0.918,0.281,0.191
42:05.1,-0.914,0.281,0.191
42:05.1,-0.922,0.281,0.184
42:05.1,-0.922,0.285,0.184
42:05.1,-0.914,0.289,0.188
42:05.1,-0.918,0.293,0.184
42:05.1,-0.918,0.293,0.188
42:05.1,-0.918,0.301,0.18
42:05.2,-0.922,0.305,0.184
42:05.2,-0.918,0.313,0.18
42:05.2,-0.914,0.32,0.176
42:05.2,-0.922,0.32,0.168
42:05.2,-0.918,0.313,0.168
42:05.2,-0.922,0.309,0.172
42:05.2,-0.918,0.301,0.168
42:05.2,-0.918,0.297,0.164
42:05.2,-0.91,0.293,0.168
42:05.2,-0.91,0.273,0.172
42:05.3,-0.914,0.27,0.172
42:05.3,-0.918,0.262,0.176
42:05.3,-0.926,0.258,0.18
42:05.3,-0.926,0.254,0.18
42:05.3,-0.918,0.262,0.195
42:05.3,-0.918,0.258,0.203
42:05.3,-0.914,0.258,0.211
42:05.3,-0.926,0.27,0.207
42:05.3,-0.93,0.281,0.203
42:05.3,-0.93,0.293,0.191
42:05.4,-0.934,0.301,0.188
42:05.4,-0.93,0.309,0.18
42:05.4,-0.926,0.32,0.172
42:05.4,-0.926,0.32,0.16
42:05.4,-0.918,0.324,0.16
42:05.4,-0.914,0.32,0.16
42:05.4,-0.91,0.309,0.164
42:05.4,-0.91,0.293,0.168
42:05.4,-0.91,0.285,0.172
42:05.4,-0.91,0.266,0.184
42:05.5,-0.91,0.254,0.195
42:05.5,-0.914,0.246,0.199
42:05.5,-0.926,0.242,0.203
42:05.5,-0.934,0.242,0.199
42:05.5,-0.945,0.254,0.203
42:05.5,-0.934,0.254,0.203
42:05.5,-0.93,0.27,0.199
42:05.5,-0.93,0.285,0.195
42:05.5,-0.934,0.301,0.191
42:05.5,-0.93,0.313,0.184
42:05.6,-0.918,0.328,0.184
42:05.6,-0.91,0.344,0.176
42:05.6,-0.902,0.355,0.16
42:05.6,-0.906,0.359,0.145
42:05.6,-0.902,0.352,0.141
42:05.6,-0.898,0.336,0.141
42:05.6,-0.898,0.32,0.141
42:05.6,-0.902,0.309,0.145
42:05.6,-0.91,0.289,0.156
42:05.6,-0.914,0.27,0.168
42:05.7,-0.914,0.254,0.168
42:05.7,-0.922,0.238,0.172
42:05.7,-0.93,0.227,0.176
42:05.7,-0.934,0.219,0.176
42:05.7,-0.934,0.219,0.176
42:05.7,-0.93,0.211,0.176
42:05.7,-0.934,0.207,0.176
42:05.7,-0.941,0.195,0.176
42:05.7,-0.949,0.199,0.176
42:05.8,-0.965,0.207,0.176
42:05.8,-0.973,0.207,0.176
42:05.8,-0.973,0.215,0.184
42:05.8,-0.965,0.227,0.195
42:05.8,-0.949,0.242,0.211
42:05.8,-0.934,0.262,0.211
42:05.8,-0.934,0.289,0.211
42:05.8,-0.922,0.313,0.203
42:05.8,-0.91,0.332,0.188
42:05.8,-0.895,0.348,0.176
42:05.8,-0.887,0.367,0.16
42:05.9,-0.883,0.379,0.152
42:05.9,-0.875,0.383,0.145
42:05.9,-0.883,0.375,0.137
42:05.9,-0.891,0.367,0.133
42:05.9,-0.906,0.348,0.137
42:05.9,-0.914,0.328,0.145
42:05.9,-0.918,0.305,0.156
42:05.9,-0.93,0.277,0.168
42:05.9,-0.938,0.258,0.172
42:05.9,-0.941,0.238,0.164
42:06.0,-0.941,0.227,0.172
42:06.0,-0.949,0.223,0.168
42:06.0,-0.953,0.215,0.16
42:06.0,-0.957,0.207,0.164
42:06.0,-0.961,0.215,0.164
42:06.0,-0.949,0.219,0.172
42:06.0,-0.949,0.227,0.176
42:06.0,-0.957,0.234,0.191
42:06.0,-0.957,0.238,0.203
42:06.0,-0.945,0.25,0.219
42:06.1,-0.938,0.262,0.227
42:06.1,-0.926,0.277,0.227
42:06.1,-0.926,0.297,0.219
42:06.1,-0.918,0.305,0.207
42:06.1,-0.906,0.32,0.188
42:06.1,-0.898,0.332,0.176
42:06.1,-0.891,0.34,0.168
42:06.1,-0.895,0.34,0.16
42:06.1,-0.898,0.348,0.148
42:06.1,-0.902,0.344,0.145
42:06.2,-0.906,0.332,0.145
42:06.2,-0.918,0.32,0.152
42:06.2,-0.93,0.305,0.16
42:06.2,-0.934,0.293,0.168
42:06.2,-0.93,0.281,0.168
42:06.2,-0.934,0.277,0.168
42:06.2,-0.938,0.27,0.168
42:06.2,-0.941,0.27,0.16
42:06.2,-0.938,0.266,0.16
42:06.2,-0.93,0.262,0.168
42:06.3,-0.922,0.27,0.172
42:06.3,-0.914,0.277,0.184
42:06.3,-0.914,0.289,0.188
42:06.3,-0.918,0.293,0.195
42:06.3,-0.914,0.297,0.188
42:06.3,-0.91,0.301,0.188
42:06.3,-0.91,0.301,0.191
42:06.3,-0.91,0.301,0.191
42:06.3,-0.918,0.301,0.188
42:06.3,-0.918,0.305,0.184
42:06.4,-0.926,0.301,0.176
42:06.4,-0.93,0.301,0.172
42:06.4,-0.926,0.297,0.168
42:06.4,-0.926,0.297,0.168
42:06.4,-0.922,0.297,0.172
42:06.4,-0.918,0.293,0.172
42:06.4,-0.922,0.289,0.172
42:06.4,-0.918,0.289,0.172
42:06.4,-0.91,0.289,0.172
42:06.4,-0.902,0.285,0.176
42:06.5,-0.902,0.277,0.184
42:06.5,-0.91,0.273,0.188
42:06.5,-0.918,0.273,0.191
42:06.5,-0.926,0.27,0.199
42:06.5,-0.941,0.266,0.203
42:06.5,-0.941,0.266,0.203
42:06.5,-0.941,0.281,0.195
42:06.5,-0.941,0.289,0.199
42:06.5,-0.938,0.301,0.191
42:06.5,-0.934,0.305,0.195
42:06.6,-0.922,0.316,0.195
42:06.6,-0.918,0.313,0.199
42:06.6,-0.914,0.316,0.195
42:06.6,-0.91,0.309,0.199
42:06.6,-0.898,0.309,0.199
42:06.6,-0.887,0.313,0.199
42:06.6,-0.883,0.305,0.199
42:06.6,-0.887,0.297,0.203
42:06.6,-0.883,0.293,0.211
42:06.6,-0.887,0.293,0.215
42:06.7,-0.891,0.293,0.215
42:06.7,-0.887,0.293,0.219
42:06.7,-0.887,0.293,0.211
42:06.7,-0.891,0.293,0.199
42:06.7,-0.902,0.293,0.188
42:06.7,-0.91,0.293,0.172
42:06.7,-0.918,0.293,0.156
42:06.7,-0.926,0.293,0.156
42:06.7,-0.934,0.293,0.152
42:06.7,-0.93,0.293,0.172
42:06.8,-0.926,0.293,0.18
42:06.8,-0.934,0.297,0.195
42:06.8,-0.938,0.293,0.203
42:06.8,-0.938,0.285,0.211
42:06.8,-0.938,0.273,0.219
42:06.8,-0.938,0.273,0.215
42:06.8,-0.938,0.27,0.211
42:06.8,-0.941,0.262,0.211
42:06.8,-0.938,0.262,0.203
42:06.8,-0.926,0.27,0.195
42:06.9,-0.918,0.273,0.191
42:06.9,-0.914,0.285,0.184
42:06.9,-0.91,0.297,0.18
42:06.9,-0.918,0.305,0.172
42:06.9,-0.91,0.316,0.172
42:06.9,-0.902,0.324,0.172
42:06.9,-0.898,0.324,0.18
42:06.9,-0.895,0.328,0.18
42:06.9,-0.891,0.324,0.188
42:06.9,-0.895,0.324,0.195
42:07.0,-0.898,0.316,0.203
42:07.0,-0.902,0.305,0.211
42:07.0,-0.91,0.297,0.219
42:07.0,-0.914,0.293,0.219
42:07.0,-0.926,0.289,0.211
42:07.0,-0.926,0.285,0.207
42:07.0,-0.93,0.289,0.195
42:07.0,-0.93,0.281,0.191
42:07.0,-0.926,0.281,0.191
42:07.0,-0.934,0.273,0.191
42:07.1,-0.938,0.273,0.191
42:07.1,-0.926,0.277,0.195
42:07.1,-0.918,0.285,0.203
42:07.1,-0.91,0.297,0.199
42:07.1,-0.906,0.305,0.203
42:07.1,-0.906,0.309,0.203
42:07.1,-0.906,0.309,0.203
42:07.1,-0.898,0.313,0.195
42:07.1,-0.898,0.32,0.195
42:07.1,-0.895,0.324,0.188
42:07.2,-0.895,0.32,0.188
42:07.2,-0.895,0.324,0.18
42:07.2,-0.895,0.332,0.18
42:07.2,-0.891,0.34,0.176
42:07.2,-0.895,0.352,0.184
42:07.2,-0.891,0.355,0.191
42:07.2,-0.895,0.355,0.191
42:07.2,-0.902,0.352,0.191
42:07.2,-0.906,0.352,0.191
42:07.2,-0.906,0.352,0.191
42:07.3,-0.906,0.348,0.188
42:07.3,-0.906,0.348,0.184
42:07.3,-0.906,0.336,0.184
42:07.3,-0.906,0.332,0.18
42:07.3,-0.91,0.328,0.176
42:07.3,-0.91,0.32,0.184
42:07.3,-0.906,0.316,0.184
42:07.3,-0.906,0.313,0.188
42:07.3,-0.906,0.301,0.188
42:07.3,-0.902,0.309,0.188
42:07.4,-0.902,0.316,0.188
42:07.4,-0.902,0.32,0.184
42:07.4,-0.902,0.324,0.184
42:07.4,-0.902,0.328,0.18
42:07.4,-0.902,0.328,0.176
42:07.4,-0.898,0.328,0.176
42:07.4,-0.898,0.324,0.18
42:07.4,-0.898,0.324,0.176
42:07.4,-0.902,0.316,0.176
42:07.4,-0.91,0.313,0.176
42:07.5,-0.91,0.313,0.164
42:07.5,-0.91,0.313,0.168
42:07.5,-0.91,0.309,0.172
42:07.5,-0.906,0.305,0.176
42:07.5,-0.922,0.313,0.176
42:07.5,-0.922,0.309,0.191
42:07.5,-0.922,0.313,0.184
42:07.5,-0.914,0.316,0.191
42:07.5,-0.91,0.32,0.195
42:07.5,-0.91,0.32,0.188
42:07.6,-0.914,0.324,0.184
42:07.6,-0.914,0.32,0.188
42:07.6,-0.91,0.32,0.188
42:07.6,-0.91,0.32,0.18
42:07.6,-0.914,0.316,0.18
42:07.6,-0.914,0.313,0.18
42:07.6,-0.922,0.309,0.176
42:07.6,-0.918,0.309,0.176
42:07.6,-0.914,0.305,0.18
42:07.6,-0.914,0.301,0.18
42:07.7,-0.914,0.297,0.184
42:07.7,-0.914,0.293,0.188
42:07.7,-0.91,0.293,0.184
42:07.7,-0.914,0.285,0.188
42:07.7,-0.918,0.289,0.188
42:07.7,-0.934,0.289,0.184
42:07.7,-0.938,0.285,0.18
42:07.7,-0.934,0.289,0.18
42:07.7,-0.926,0.289,0.18
42:07.7,-0.926,0.285,0.18
42:07.8,-0.922,0.281,0.18
42:07.8,-0.918,0.281,0.176
42:07.8,-0.914,0.285,0.176
42:07.8,-0.914,0.285,0.176
42:07.8,-0.914,0.289,0.176
42:07.8,-0.922,0.285,0.176
42:07.8,-0.918,0.281,0.176
42:07.8,-0.918,0.281,0.176
42:07.8,-0.918,0.285,0.18
42:07.8,-0.922,0.277,0.18
42:07.9,-0.922,0.27,0.18
42:07.9,-0.93,0.266,0.188
42:07.9,-0.926,0.266,0.188
42:07.9,-0.918,0.277,0.188
42:07.9,-0.918,0.277,0.191
42:07.9,-0.926,0.281,0.184
42:07.9,-0.934,0.277,0.184
42:07.9,-0.93,0.273,0.184
42:07.9,-0.926,0.277,0.18
42:08.0,-0.934,0.273,0.176
42:08.0,-0.934,0.27,0.176
42:08.0,-0.93,0.277,0.176
42:08.0,-0.922,0.277,0.176
42:08.0,-0.914,0.285,0.18
42:08.0,-0.918,0.285,0.176
42:08.0,-0.918,0.277,0.18
42:08.0,-0.922,0.277,0.18
42:08.0,-0.926,0.273,0.176
42:08.0,-0.926,0.273,0.176
42:08.0,-0.922,0.277,0.176
42:08.1,-0.918,0.285,0.184
42:08.1,-0.918,0.289,0.184
42:08.1,-0.922,0.297,0.188
42:08.1,-0.918,0.297,0.184
42:08.1,-0.926,0.301,0.184
42:08.1,-0.93,0.297,0.18
42:08.1,-0.93,0.297,0.176
42:08.1,-0.926,0.297,0.176
42:08.1,-0.922,0.293,0.176
42:08.1,-0.922,0.293,0.176
42:08.2,-0.922,0.293,0.18
42:08.2,-0.922,0.281,0.184
42:08.2,-0.918,0.266,0.188
42:08.2,-0.91,0.273,0.191
42:08.2,-0.906,0.273,0.199
42:08.2,-0.906,0.273,0.195
42:08.2,-0.91,0.285,0.188
42:08.2,-0.918,0.289,0.188
42:08.2,-0.922,0.285,0.188
42:08.2,-0.922,0.289,0.184
42:08.3,-0.922,0.293,0.18
42:08.3,-0.926,0.293,0.176
42:08.3,-0.922,0.293,0.176
42:08.3,-0.914,0.289,0.176
42:08.3,-0.918,0.281,0.184
42:08.3,-0.918,0.277,0.188
42:08.3,-0.922,0.273,0.188
42:08.3,-0.918,0.273,0.191
42:08.3,-0.914,0.277,0.188
42:08.3,-0.91,0.289,0.195
42:08.4,-0.91,0.293,0.199
42:08.4,-0.91,0.293,0.199
42:08.4,-0.91,0.293,0.195
42:08.4,-0.914,0.293,0.188
42:08.4,-0.906,0.293,0.184
42:08.4,-0.91,0.297,0.18
42:08.4,-0.918,0.297,0.18
42:08.4,-0.922,0.293,0.176
42:08.4,-0.918,0.297,0.176
42:08.4,-0.922,0.301,0.176
42:08.5,-0.922,0.305,0.18
42:08.5,-0.918,0.301,0.176
42:08.5,-0.914,0.309,0.176
42:08.5,-0.914,0.309,0.18
42:08.5,-0.922,0.313,0.18
42:08.5,-0.914,0.313,0.188
42:08.5,-0.918,0.313,0.188
42:08.5,-0.918,0.313,0.184
42:08.5,-0.914,0.313,0.184
42:08.5,-0.914,0.313,0.184
42:08.6,-0.91,0.313,0.18
42:08.6,-0.91,0.313,0.18
42:08.6,-0.91,0.305,0.176
42:08.6,-0.914,0.301,0.18
42:08.6,-0.914,0.297,0.176
42:08.6,-0.922,0.297,0.176
42:08.6,-0.926,0.301,0.172
42:08.6,-0.922,0.309,0.176
42:08.6,-0.922,0.313,0.176
42:08.7,-0.914,0.316,0.176
42:08.7,-0.91,0.316,0.176
42:08.7,-0.91,0.305,0.18
42:08.7,-0.906,0.305,0.176
42:08.7,-0.906,0.297,0.176
42:08.7,-0.906,0.293,0.176
42:08.7,-0.906,0.289,0.176
42:08.7,-0.91,0.293,0.176
42:08.7,-0.91,0.289,0.176
42:08.7,-0.918,0.289,0.18
42:08.7,-0.926,0.289,0.18
42:08.8,-0.922,0.293,0.184
42:08.8,-0.918,0.293,0.184
42:08.8,-0.926,0.297,0.184
42:08.8,-0.934,0.305,0.184
42:08.8,-0.922,0.316,0.18
42:08.8,-0.918,0.316,0.18
42:08.8,-0.914,0.316,0.168
42:08.8,-0.91,0.32,0.172
42:08.8,-0.906,0.324,0.172
42:08.8,-0.898,0.324,0.172
42:08.9,-0.895,0.324,0.172
42:08.9,-0.895,0.32,0.172
42:08.9,-0.898,0.32,0.172
42:08.9,-0.906,0.309,0.168
42:08.9,-0.906,0.309,0.164
42:08.9,-0.914,0.309,0.168
42:08.9,-0.914,0.309,0.172
42:08.9,-0.922,0.305,0.176
42:08.9,-0.922,0.305,0.172
42:08.9,-0.926,0.301,0.172
42:09.0,-0.926,0.305,0.168
42:09.0,-0.93,0.309,0.172
42:09.0,-0.926,0.305,0.172
42:09.0,-0.918,0.305,0.168
42:09.0,-0.93,0.297,0.168
42:09.0,-0.922,0.293,0.172
42:09.0,-0.922,0.293,0.168
42:09.0,-0.922,0.289,0.172
42:09.0,-0.918,0.289,0.172
42:09.0,-0.918,0.289,0.172
42:09.1,-0.922,0.289,0.176
42:09.1,-0.918,0.293,0.176
42:09.1,-0.914,0.293,0.176
42:09.1,-0.914,0.297,0.172
42:09.1,-0.914,0.297,0.164
42:09.1,-0.914,0.305,0.168
42:09.1,-0.918,0.309,0.168
42:09.1,-0.914,0.309,0.172
42:09.1,-0.914,0.313,0.172
42:09.1,-0.91,0.313,0.176
42:09.2,-0.914,0.316,0.176
42:09.2,-0.918,0.313,0.168
42:09.2,-0.926,0.309,0.168
42:09.2,-0.926,0.301,0.168
42:09.2,-0.922,0.301,0.172
42:09.2,-0.918,0.301,0.172
42:09.2,-0.91,0.301,0.168
42:09.2,-0.91,0.297,0.168
42:09.2,-0.91,0.297,0.172
42:09.2,-0.91,0.293,0.172
42:09.3,-0.91,0.293,0.176
42:09.3,-0.91,0.297,0.176
42:09.3,-0.91,0.305,0.176
42:09.3,-0.914,0.305,0.176
42:09.3,-0.91,0.305,0.176
42:09.3,-0.914,0.305,0.172
42:09.3,-0.914,0.313,0.168
42:09.3,-0.914,0.313,0.156
42:09.3,-0.91,0.32,0.156
42:09.3,-0.91,0.32,0.16
42:09.4,-0.91,0.32,0.164
42:09.4,-0.91,0.328,0.168
42:09.4,-0.914,0.328,0.168
42:09.4,-0.914,0.328,0.164
42:09.4,-0.918,0.328,0.164
42:09.4,-0.914,0.324,0.164
42:09.4,-0.918,0.324,0.164
42:09.4,-0.914,0.324,0.164
42:09.4,-0.918,0.32,0.164
42:09.4,-0.914,0.32,0.164
42:09.5,-0.914,0.32,0.168
42:09.5,-0.918,0.324,0.168
42:09.5,-0.926,0.32,0.168
42:09.5,-0.934,0.313,0.168
42:09.5,-0.945,0.309,0.164
42:09.5,-0.934,0.316,0.176
42:09.5,-0.926,0.328,0.168
42:09.5,-0.918,0.34,0.16
42:09.5,-0.918,0.344,0.164
42:09.5,-0.914,0.348,0.176
42:09.6,-0.914,0.371,0.191
42:09.6,-0.918,0.418,0.18
42:09.6,-0.914,0.418,0.199
42:09.6,-0.918,0.395,0.191
42:09.6,-0.918,0.387,0.191
42:09.6,-0.914,0.387,0.191
42:09.6,-0.918,0.352,0.188
42:09.6,-0.91,0.305,0.191
42:09.6,-0.895,0.258,0.188
42:09.6,-0.891,0.184,0.18
42:09.7,-0.883,0.137,0.188
42:09.7,-0.883,0.113,0.188
42:09.7,-0.879,0.105,0.184
42:09.7,-0.879,0.129,0.18
42:09.7,-0.883,0.164,0.176
42:09.7,-0.883,0.207,0.176
42:09.7,-0.891,0.23,0.168
42:09.7,-0.902,0.246,0.164
42:09.7,-0.91,0.262,0.16
42:09.7,-0.918,0.273,0.164
42:09.8,-0.934,0.301,0.16
42:09.8,-0.938,0.344,0.156
42:09.8,-0.945,0.371,0.145
42:09.8,-0.961,0.383,0.148
42:09.8,-0.98,0.383,0.16
42:09.8,-0.977,0.355,0.168
42:09.8,-0.969,0.316,0.172
42:09.8,-0.949,0.285,0.164
42:09.8,-0.938,0.254,0.148
42:09.8,-0.93,0.238,0.141
42:09.9,-0.918,0.23,0.137
42:09.9,-0.918,0.23,0.137
42:09.9,-0.918,0.238,0.145
42:09.9,-0.922,0.234,0.148
42:09.9,-0.926,0.234,0.156
42:09.9,-0.926,0.242,0.164
42:09.9,-0.93,0.242,0.172
42:09.9,-0.934,0.246,0.176
42:09.9,-0.938,0.25,0.176
42:09.9,-0.938,0.254,0.176
42:10.0,-0.941,0.258,0.176
42:10.0,-0.945,0.254,0.176
42:10.0,-0.941,0.258,0.18
42:10.0,-0.941,0.258,0.18
42:10.0,-0.949,0.258,0.176
42:10.0,-0.941,0.262,0.176
42:10.0,-0.941,0.262,0.168
42:10.0,-0.934,0.266,0.168
42:10.0,-0.926,0.266,0.164
42:10.0,-0.922,0.262,0.164
42:10.1,-0.918,0.258,0.164
42:10.1,-0.922,0.254,0.164
42:10.1,-0.93,0.258,0.168
42:10.1,-0.922,0.254,0.168
42:10.1,-0.93,0.254,0.168
42:10.1,-0.934,0.254,0.168
42:10.1,-0.938,0.254,0.172
42:10.1,-0.938,0.25,0.168
42:10.1,-0.938,0.254,0.168
42:10.2,-0.938,0.254,0.168
42:10.2,-0.934,0.254,0.168
42:10.2,-0.934,0.254,0.164
42:10.2,-0.938,0.254,0.16
42:10.2,-0.934,0.258,0.16
42:10.2,-0.93,0.254,0.16
42:10.2,-0.938,0.25,0.16
42:10.2,-0.938,0.254,0.168
42:10.2,-0.941,0.254,0.164
42:10.2,-0.938,0.25,0.168
42:10.2,-0.934,0.254,0.168
42:10.3,-0.934,0.254,0.172
42:10.3,-0.934,0.258,0.168
42:10.3,-0.938,0.258,0.164
42:10.3,-0.934,0.266,0.164
42:10.3,-0.938,0.27,0.164
42:10.3,-0.938,0.266,0.164
42:10.3,-0.93,0.27,0.156
42:10.3,-0.938,0.266,0.16
42:10.3,-0.938,0.262,0.164
42:10.3,-0.941,0.262,0.16
42:10.4,-0.941,0.262,0.164
42:10.4,-0.938,0.262,0.168
42:10.4,-0.938,0.262,0.168
42:10.4,-0.934,0.266,0.164
42:10.4,-0.934,0.273,0.168
42:10.4,-0.938,0.273,0.172
42:10.4,-0.934,0.273,0.172
42:10.4,-0.934,0.27,0.176
42:10.4,-0.934,0.266,0.176
42:10.4,-0.938,0.262,0.172
42:10.5,-0.93,0.262,0.168
42:10.5,-0.934,0.262,0.172
42:10.5,-0.938,0.262,0.168
42:10.5,-0.938,0.27,0.168
42:10.5,-0.945,0.273,0.164
42:10.5,-0.941,0.266,0.168
42:10.5,-0.934,0.27,0.164
42:10.5,-0.93,0.273,0.164
42:10.5,-0.93,0.273,0.164
42:10.5,-0.934,0.273,0.168
42:10.6,-0.934,0.266,0.172
42:10.6,-0.926,0.266,0.176
42:10.6,-0.926,0.266,0.176
42:10.6,-0.93,0.262,0.168
42:10.6,-0.934,0.266,0.172
42:10.6,-0.93,0.27,0.172
42:10.6,-0.926,0.266,0.176
42:10.6,-0.926,0.266,0.172
42:10.6,-0.93,0.262,0.168
42:10.6,-0.934,0.27,0.172
42:10.7,-0.938,0.277,0.168
42:10.7,-0.926,0.277,0.172
42:10.7,-0.93,0.273,0.172
42:10.7,-0.926,0.273,0.172
42:10.7,-0.934,0.273,0.168
42:10.7,-0.934,0.273,0.168
42:10.7,-0.926,0.273,0.172
42:10.7,-0.926,0.27,0.168
42:10.7,-0.926,0.266,0.172
42:10.7,-0.926,0.266,0.172
42:10.8,-0.93,0.266,0.164
42:10.8,-0.926,0.266,0.168
42:10.8,-0.93,0.266,0.168
42:10.8,-0.93,0.266,0.168
42:10.8,-0.93,0.258,0.168
42:10.8,-0.93,0.254,0.172
42:10.8,-0.934,0.254,0.176
42:10.8,-0.938,0.254,0.18
42:10.8,-0.938,0.254,0.176
42:10.9,-0.941,0.262,0.176
42:10.9,-0.938,0.262,0.168
42:10.9,-0.934,0.262,0.164
42:10.9,-0.934,0.266,0.168
42:10.9,-0.93,0.266,0.172
42:10.9,-0.93,0.258,0.176
42:10.9,-0.93,0.254,0.18
42:10.9,-0.934,0.25,0.176
42:10.9,-0.938,0.258,0.176
42:10.9,-0.938,0.262,0.176
42:10.9,-0.93,0.273,0.164
42:11.0,-0.93,0.281,0.164
42:11.0,-0.938,0.281,0.164
42:11.0,-0.934,0.277,0.164
42:11.0,-0.93,0.273,0.172
42:11.0,-0.938,0.266,0.172
42:11.0,-0.934,0.262,0.172
42:11.0,-0.938,0.262,0.172
42:11.0,-0.938,0.262,0.172
42:11.0,-0.938,0.258,0.176
42:11.0,-0.934,0.254,0.172
42:11.1,-0.934,0.254,0.176
42:11.1,-0.938,0.254,0.172
42:11.1,-0.938,0.25,0.172
42:11.1,-0.93,0.254,0.168
42:11.1,-0.93,0.254,0.168
42:11.1,-0.93,0.258,0.172
42:11.1,-0.93,0.254,0.176
42:11.1,-0.934,0.258,0.172
42:11.1,-0.926,0.262,0.172
42:11.1,-0.926,0.262,0.164
42:11.2,-0.926,0.27,0.168
42:11.2,-0.922,0.266,0.172
42:11.2,-0.926,0.266,0.176
42:11.2,-0.926,0.266,0.176
42:11.2,-0.926,0.27,0.176
42:11.2,-0.926,0.27,0.176
42:11.2,-0.93,0.266,0.172
42:11.2,-0.934,0.266,0.168
42:11.2,-0.938,0.258,0.168
42:11.2,-0.938,0.258,0.172
42:11.3,-0.938,0.258,0.168
42:11.3,-0.938,0.258,0.164
42:11.3,-0.938,0.258,0.168
42:11.3,-0.938,0.25,0.168
42:11.3,-0.938,0.25,0.172
42:11.3,-0.938,0.25,0.172
42:11.3,-0.934,0.254,0.176
42:11.3,-0.934,0.258,0.176
42:11.3,-0.938,0.266,0.172
42:11.3,-0.934,0.262,0.172
42:11.4,-0.93,0.262,0.176
42:11.4,-0.934,0.27,0.172
42:11.4,-0.934,0.266,0.172
42:11.4,-0.93,0.262,0.172
42:11.4,-0.926,0.258,0.176
42:11.4,-0.934,0.258,0.172
42:11.4,-0.938,0.258,0.172
42:11.4,-0.934,0.262,0.168
42:11.4,-0.934,0.262,0.172
42:11.4,-0.934,0.27,0.168
42:11.5,-0.93,0.262,0.168
42:11.5,-0.934,0.258,0.168
42:11.5,-0.938,0.254,0.172
42:11.5,-0.938,0.258,0.176
42:11.5,-0.953,0.254,0.176
42:11.5,-0.938,0.258,0.18
42:11.5,-0.938,0.266,0.172
42:11.5,-0.938,0.262,0.172
42:11.5,-0.938,0.262,0.172
42:11.5,-0.934,0.262,0.172
42:11.6,-0.922,0.262,0.176
42:11.6,-0.93,0.262,0.176
42:11.6,-0.934,0.258,0.176
42:11.6,-0.934,0.258,0.168
42:11.6,-0.934,0.254,0.168
42:11.6,-0.934,0.258,0.172
42:11.6,-0.938,0.266,0.172
42:11.6,-0.934,0.273,0.176
42:11.6,-0.938,0.273,0.172
42:11.6,-0.938,0.277,0.172
42:11.7,-0.938,0.27,0.172
42:11.7,-0.938,0.27,0.176
42:11.7,-0.93,0.27,0.176
42:11.7,-0.938,0.266,0.18
42:11.7,-0.938,0.262,0.176
42:11.7,-0.934,0.258,0.176
42:11.7,-0.934,0.262,0.176
42:11.7,-0.934,0.266,0.172
42:11.7,-0.938,0.266,0.172
42:11.7,-0.938,0.27,0.164
42:11.8,-0.934,0.266,0.168
42:11.8,-0.93,0.262,0.172
42:11.8,-0.926,0.262,0.172
42:11.8,-0.922,0.258,0.172
42:11.8,-0.918,0.258,0.172
42:11.8,-0.922,0.258,0.172
42:11.8,-0.918,0.258,0.172
42:11.8,-0.914,0.258,0.172
42:11.8,-0.918,0.254,0.168
42:11.8,-0.926,0.258,0.168
42:11.9,-0.93,0.258,0.168
42:11.9,-0.934,0.258,0.172
42:11.9,-0.93,0.266,0.168
42:11.9,-0.938,0.266,0.168
42:11.9,-0.934,0.273,0.168
42:11.9,-0.938,0.27,0.168
42:11.9,-0.934,0.266,0.164
42:11.9,-0.934,0.27,0.172
42:11.9,-0.938,0.262,0.172
42:11.9,-0.938,0.262,0.176
42:12.0,-0.938,0.258,0.172
42:12.0,-0.93,0.258,0.176
42:12.0,-0.922,0.254,0.168
42:12.0,-0.93,0.25,0.172
42:12.0,-0.945,0.246,0.168
42:12.0,-0.934,0.246,0.172
42:12.0,-0.93,0.25,0.172
42:12.0,-0.922,0.254,0.176
42:12.0,-0.922,0.258,0.176
42:12.0,-0.93,0.258,0.172
42:12.1,-0.934,0.262,0.164
42:12.1,-0.941,0.266,0.16
42:12.1,-0.941,0.27,0.164
42:12.1,-0.941,0.273,0.164
42:12.1,-0.941,0.285,0.16
42:12.1,-0.938,0.289,0.156
42:12.1,-0.934,0.285,0.168
42:12.1,-0.93,0.289,0.168
42:12.1,-0.934,0.289,0.172
42:12.1,-0.934,0.277,0.176
42:12.2,-0.934,0.27,0.18
42:12.2,-0.938,0.262,0.18
42:12.2,-0.93,0.258,0.184
42:12.2,-0.934,0.258,0.184
42:12.2,-0.941,0.254,0.184
42:12.2,-0.941,0.254,0.18
42:12.2,-0.941,0.254,0.176
42:12.2,-0.934,0.262,0.172
42:12.2,-0.93,0.27,0.168
42:12.2,-0.93,0.273,0.16
42:12.3,-0.93,0.266,0.16
42:12.3,-0.934,0.262,0.156
42:12.3,-0.938,0.262,0.156
42:12.3,-0.934,0.27,0.156
42:12.3,-0.93,0.273,0.16
42:12.3,-0.93,0.273,0.164
42:12.3,-0.938,0.277,0.172
42:12.3,-0.93,0.277,0.176
42:12.3,-0.926,0.273,0.18
42:12.3,-0.926,0.277,0.176
42:12.4,-0.922,0.266,0.18
42:12.4,-0.926,0.262,0.176
42:12.4,-0.93,0.262,0.176
42:12.4,-0.922,0.262,0.176
42:12.4,-0.926,0.262,0.172
42:12.4,-0.93,0.258,0.172
42:12.4,-0.93,0.258,0.168
42:12.4,-0.926,0.262,0.168
42:12.4,-0.926,0.27,0.172
42:12.4,-0.934,0.27,0.172
42:12.5,-0.938,0.262,0.172
42:12.5,-0.934,0.266,0.176
42:12.5,-0.938,0.266,0.172
42:12.5,-0.938,0.27,0.172
42:12.5,-0.949,0.277,0.164
42:12.5,-0.941,0.266,0.176
42:12.5,-0.938,0.266,0.176
42:12.5,-0.934,0.273,0.176
42:12.5,-0.93,0.273,0.176
42:12.5,-0.926,0.277,0.168
42:12.6,-0.926,0.273,0.168
42:12.6,-0.93,0.266,0.172
42:12.6,-0.93,0.258,0.168
42:12.6,-0.934,0.258,0.168
42:12.6,-0.93,0.25,0.172
42:12.6,-0.93,0.246,0.168
42:12.6,-0.93,0.242,0.168
42:12.6,-0.938,0.246,0.168
42:12.6,-0.938,0.246,0.172
42:12.6,-0.938,0.25,0.176
42:12.7,-0.941,0.254,0.176
42:12.7,-0.941,0.27,0.176
42:12.7,-0.93,0.281,0.176
42:12.7,-0.93,0.293,0.176
42:12.7,-0.934,0.297,0.176
42:12.7,-0.926,0.297,0.176
42:12.7,-0.922,0.297,0.176
42:12.7,-0.922,0.293,0.172
42:12.7,-0.926,0.293,0.172
42:12.7,-0.926,0.285,0.172
42:12.8,-0.926,0.285,0.168
42:12.8,-0.922,0.277,0.168
42:12.8,-0.922,0.27,0.164
42:12.8,-0.922,0.254,0.164
42:12.8,-0.918,0.246,0.172
42:12.8,-0.914,0.238,0.176
42:12.8,-0.91,0.23,0.18
42:12.8,-0.918,0.238,0.184
42:12.8,-0.922,0.246,0.184
42:12.8,-0.926,0.25,0.18
42:12.9,-0.934,0.258,0.176
42:12.9,-0.938,0.266,0.176
42:12.9,-0.949,0.27,0.176
42:12.9,-0.945,0.273,0.172
42:12.9,-0.941,0.285,0.172
42:12.9,-0.938,0.289,0.172
42:12.9,-0.938,0.293,0.168
42:12.9,-0.934,0.293,0.16
42:12.9,-0.938,0.293,0.168
42:12.9,-0.938,0.285,0.172
42:13.0,-0.934,0.27,0.18
42:13.0,-0.926,0.258,0.184
42:13.0,-0.926,0.258,0.188
42:13.0,-0.926,0.262,0.18
42:13.0,-0.934,0.27,0.176
42:13.0,-0.934,0.262,0.176
42:13.0,-0.934,0.262,0.176
42:13.0,-0.938,0.266,0.176
42:13.0,-0.93,0.27,0.172
42:13.1,-0.93,0.27,0.172
42:13.1,-0.926,0.27,0.172
42:13.1,-0.926,0.273,0.168
42:13.1,-0.93,0.27,0.168
42:13.1,-0.934,0.27,0.164
42:13.1,-0.93,0.273,0.164
42:13.1,-0.922,0.285,0.164
42:13.1,-0.922,0.289,0.16
42:13.1,-0.918,0.293,0.16
42:13.1,-0.918,0.289,0.164
42:13.1,-0.922,0.285,0.172
42:13.2,-0.918,0.285,0.176
42:13.2,-0.914,0.289,0.18
42:13.2,-0.914,0.285,0.18
42:13.2,-0.918,0.281,0.18
42:13.2,-0.922,0.281,0.176
42:13.2,-0.918,0.273,0.176
42:13.2,-0.922,0.27,0.172
42:13.2,-0.922,0.27,0.172
42:13.2,-0.934,0.273,0.168
42:13.2,-0.938,0.273,0.168
42:13.3,-0.938,0.273,0.168
42:13.3,-0.938,0.277,0.172
42:13.3,-0.938,0.266,0.172
42:13.3,-0.941,0.266,0.176
42:13.3,-0.945,0.258,0.176
42:13.3,-0.941,0.258,0.172
42:13.3,-0.934,0.258,0.172
42:13.3,-0.934,0.258,0.176
42:13.3,-0.934,0.258,0.176
42:13.3,-0.938,0.258,0.172
42:13.4,-0.93,0.258,0.172
42:13.4,-0.922,0.258,0.176
42:13.4,-0.922,0.262,0.172
42:13.4,-0.922,0.262,0.176
42:13.4,-0.926,0.27,0.176
42:13.4,-0.93,0.273,0.176
42:13.4,-0.938,0.27,0.176
42:13.4,-0.938,0.27,0.176
42:13.4,-0.941,0.27,0.172
42:13.4,-0.938,0.273,0.176
42:13.5,-0.93,0.277,0.168
42:13.5,-0.926,0.273,0.168
42:13.5,-0.926,0.273,0.172
42:13.5,-0.93,0.262,0.172
42:13.5,-0.938,0.262,0.176
42:13.5,-0.93,0.258,0.176
42:13.5,-0.93,0.254,0.172
42:13.5,-0.926,0.254,0.172
42:13.5,-0.926,0.258,0.172
42:13.5,-0.93,0.254,0.172
42:13.6,-0.934,0.262,0.176
42:13.6,-0.938,0.273,0.172
42:13.6,-0.934,0.273,0.176
42:13.6,-0.926,0.27,0.176
42:13.6,-0.922,0.273,0.176
42:13.6,-0.926,0.27,0.176
42:13.6,-0.926,0.27,0.176
42:13.6,-0.922,0.273,0.176
42:13.6,-0.926,0.27,0.176
42:13.6,-0.926,0.273,0.172
42:13.7,-0.926,0.27,0.172
42:13.7,-0.926,0.27,0.168
42:13.7,-0.926,0.27,0.172
42:13.7,-0.93,0.266,0.172
42:13.7,-0.926,0.262,0.172
42:13.7,-0.926,0.27,0.172
42:13.7,-0.93,0.266,0.176
42:13.7,-0.926,0.273,0.176
42:13.7,-0.926,0.277,0.172
42:13.7,-0.93,0.277,0.168
42:13.8,-0.93,0.281,0.172
42:13.8,-0.926,0.281,0.176
42:13.8,-0.926,0.277,0.176
42:13.8,-0.926,0.273,0.18
42:13.8,-0.926,0.273,0.18
42:13.8,-0.926,0.27,0.176
42:13.8,-0.926,0.273,0.176
42:13.8,-0.926,0.281,0.172
42:13.8,-0.93,0.281,0.176
42:13.8,-0.934,0.273,0.176
42:13.9,-0.93,0.27,0.176
42:13.9,-0.93,0.27,0.176
42:13.9,-0.934,0.27,0.176
42:13.9,-0.934,0.273,0.176
42:13.9,-0.938,0.27,0.172
42:13.9,-0.934,0.277,0.172
42:13.9,-0.926,0.281,0.172
42:13.9,-0.922,0.281,0.176
42:13.9,-0.93,0.277,0.176
42:13.9,-0.93,0.273,0.18
42:14.0,-0.926,0.277,0.176
42:14.0,-0.934,0.262,0.18
42:14.0,-0.934,0.266,0.172
42:14.0,-0.934,0.273,0.172
42:14.0,-0.938,0.281,0.168
42:14.0,-0.93,0.273,0.168
42:14.0,-0.93,0.273,0.164
42:14.0,-0.922,0.273,0.164
42:14.0,-0.922,0.277,0.172
42:14.0,-0.918,0.273,0.172
42:14.1,-0.918,0.27,0.176
42:14.1,-0.918,0.266,0.176
42:14.1,-0.926,0.262,0.176
42:14.1,-0.926,0.262,0.176
42:14.1,-0.934,0.266,0.176
42:14.1,-0.934,0.273,0.176
42:14.1,-0.93,0.273,0.184
42:14.1,-0.93,0.273,0.184
42:14.1,-0.934,0.273,0.18
42:14.1,-0.934,0.27,0.176
42:14.2,-0.934,0.273,0.176
42:14.2,-0.93,0.27,0.176
42:14.2,-0.93,0.27,0.176
42:14.2,-0.926,0.27,0.18
42:14.2,-0.926,0.273,0.176
42:14.2,-0.926,0.27,0.18
42:14.2,-0.926,0.266,0.18
42:14.2,-0.926,0.266,0.18
42:14.2,-0.926,0.266,0.18
42:14.2,-0.93,0.262,0.176
42:14.3,-0.926,0.27,0.176
42:14.3,-0.93,0.27,0.172
42:14.3,-0.93,0.258,0.164
42:14.3,-0.926,0.258,0.168
42:14.3,-0.934,0.25,0.172
42:14.3,-0.934,0.258,0.176
42:14.3,-0.934,0.266,0.176
42:14.3,-0.938,0.27,0.176
42:14.3,-0.941,0.277,0.164
42:14.3,-0.941,0.277,0.164
42:14.4,-0.945,0.273,0.16
42:14.4,-0.945,0.27,0.164
42:14.4,-0.949,0.266,0.168
42:14.4,-0.949,0.258,0.172
42:14.4,-0.945,0.254,0.172
42:14.4,-0.949,0.254,0.172
42:14.4,-0.945,0.254,0.176
42:14.4,-0.949,0.25,0.172
42:14.4,-0.941,0.254,0.172
42:14.4,-0.938,0.254,0.176
42:14.5,-0.941,0.254,0.18
42:14.5,-0.941,0.254,0.18
42:14.5,-0.938,0.262,0.176
42:14.5,-0.93,0.27,0.184
42:14.5,-0.934,0.285,0.18
42:14.5,-0.922,0.281,0.176
42:14.5,-0.914,0.281,0.168
42:14.5,-0.914,0.281,0.16
42:14.5,-0.918,0.27,0.16
42:14.5,-0.93,0.262,0.172
42:14.6,-0.926,0.262,0.172
42:14.6,-0.922,0.266,0.176
42:14.6,-0.914,0.27,0.18
42:14.6,-0.91,0.27,0.184
42:14.6,-0.91,0.277,0.18
42:14.6,-0.918,0.277,0.184
42:14.6,-0.922,0.273,0.184
42:14.6,-0.922,0.27,0.188
42:14.6,-0.914,0.262,0.188
42:14.6,-0.914,0.258,0.18
42:14.7,-0.922,0.242,0.18
42:14.7,-0.926,0.238,0.172
42:14.7,-0.934,0.23,0.168
42:14.7,-0.938,0.227,0.164
42:14.7,-0.938,0.223,0.168
42:14.7,-0.941,0.215,0.176
42:14.7,-0.949,0.199,0.176
42:14.7,-0.953,0.188,0.18
42:14.7,-0.953,0.18,0.184
42:14.7,-0.953,0.18,0.176
42:14.8,-0.957,0.176,0.176
42:14.8,-0.953,0.18,0.172
42:14.8,-0.953,0.176,0.168
42:14.8,-0.953,0.184,0.16
42:14.8,-0.953,0.195,0.164
42:14.8,-0.953,0.195,0.168
42:14.8,-0.953,0.188,0.172
42:14.8,-0.949,0.184,0.172
42:14.8,-0.949,0.176,0.164
42:14.8,-0.965,0.176,0.164
42:14.9,-0.969,0.176,0.168
42:14.9,-0.965,0.172,0.16
42:14.9,-0.965,0.176,0.148
42:14.9,-0.965,0.172,0.145
42:14.9,-0.961,0.176,0.145
42:14.9,-0.965,0.176,0.148
42:14.9,-0.965,0.176,0.152
42:14.9,-0.961,0.172,0.156
42:14.9,-0.961,0.172,0.156
42:14.9,-0.961,0.172,0.148
42:15.0,-0.969,0.164,0.152
42:15.0,-0.973,0.16,0.156
42:15.0,-0.969,0.172,0.148
42:15.0,-0.965,0.176,0.141
42:15.0,-0.977,0.176,0.129
42:15.0,-0.969,0.176,0.129
42:15.0,-0.965,0.188,0.129
42:15.0,-0.965,0.188,0.137
42:15.0,-0.969,0.184,0.137
42:15.0,-0.973,0.168,0.145
42:15.1,-0.973,0.16,0.156
42:15.1,-0.973,0.156,0.16
42:15.1,-0.969,0.156,0.16
42:15.1,-0.965,0.156,0.152
42:15.1,-0.969,0.152,0.145
42:15.1,-0.969,0.148,0.137
42:15.1,-0.965,0.152,0.137
42:15.1,-0.965,0.152,0.133
42:15.1,-0.969,0.156,0.133
42:15.1,-0.965,0.16,0.133
42:15.2,-0.961,0.164,0.133
42:15.2,-0.957,0.156,0.133
42:15.2,-0.961,0.152,0.129
42:15.2,-0.961,0.152,0.125
42:15.2,-0.957,0.145,0.121
42:15.2,-0.965,0.129,0.125
42:15.2,-0.961,0.117,0.121
42:15.2,-0.965,0.113,0.121
42:15.2,-0.969,0.117,0.113
42:15.3,-0.973,0.117,0.109
42:15.3,-0.977,0.121,0.105
42:15.3,-0.977,0.121,0.105
42:15.3,-0.977,0.129,0.105
42:15.3,-0.973,0.137,0.102
42:15.3,-0.973,0.145,0.102
42:15.3,-0.973,0.141,0.105
42:15.3,-0.98,0.129,0.113
42:15.3,-0.98,0.121,0.121
42:15.3,-0.977,0.121,0.121
42:15.3,-0.977,0.117,0.117
42:15.4,-0.973,0.121,0.125
42:15.4,-0.973,0.129,0.121
42:15.4,-0.973,0.137,0.117
42:15.4,-0.969,0.145,0.109
42:15.4,-0.969,0.148,0.113
42:15.4,-0.973,0.152,0.109
42:15.4,-0.977,0.152,0.109
42:15.4,-0.977,0.152,0.105
42:15.4,-0.98,0.148,0.105
42:15.4,-0.98,0.145,0.105
42:15.5,-0.977,0.148,0.098
42:15.5,-0.977,0.141,0.098
42:15.5,-0.977,0.133,0.094
42:15.5,-0.977,0.133,0.094
42:15.5,-0.984,0.125,0.09
42:15.5,-0.977,0.117,0.102
42:15.5,-0.973,0.113,0.098
42:15.5,-0.973,0.113,0.102
42:15.5,-0.969,0.117,0.094
42:15.5,-0.973,0.129,0.082
42:15.6,-0.977,0.148,0.074
42:15.6,-0.977,0.172,0.074
42:15.6,-0.98,0.188,0.082
42:15.6,-0.984,0.184,0.098
42:15.6,-0.992,0.172,0.113
42:15.6,-0.992,0.16,0.125
42:15.6,-0.988,0.16,0.125
42:15.6,-0.984,0.172,0.117
42:15.6,-0.984,0.195,0.109
42:15.6,-0.984,0.219,0.113
42:15.7,-0.98,0.223,0.121
42:15.7,-0.977,0.223,0.145
42:15.7,-0.977,0.219,0.156
42:15.7,-0.984,0.219,0.164
42:15.7,-0.988,0.219,0.168
42:15.7,-0.988,0.203,0.16
42:15.7,-0.98,0.18,0.145
42:15.7,-0.977,0.164,0.129
42:15.7,-0.973,0.152,0.117
42:15.7,-0.973,0.137,0.109
42:15.8,-0.977,0.129,0.105
42:15.8,-0.992,0.117,0.086
42:15.8,-1.004,0.117,0.078
42:15.8,-1.016,0.113,0.074
42:15.8,-1.02,0.113,0.09
42:15.8,-1.016,0.105,0.102
42:15.8,-1.008,0.105,0.113
42:15.8,-0.996,0.117,0.125
42:15.8,-1,0.129,0.133
42:15.8,-1.004,0.141,0.137
42:15.9,-1.008,0.164,0.141
42:15.9,-1.012,0.195,0.148
42:15.9,-1.012,0.215,0.164
42:15.9,-1.008,0.238,0.18
42:15.9,-1.02,0.262,0.199
42:15.9,-1.02,0.266,0.199
42:15.9,-1.008,0.242,0.188
42:15.9,-0.98,0.223,0.172
42:15.9,-0.945,0.195,0.168
42:16.0,-0.91,0.176,0.172
42:16.0,-0.875,0.168,0.188
42:16.0,-0.84,0.172,0.207
42:16.0,-0.809,0.188,0.254
42:16.0,-0.785,0.207,0.305
42:16.0,-0.773,0.227,0.352
42:16.0,-0.75,0.246,0.383
42:16.0,-0.754,0.281,0.383
42:16.0,-0.766,0.32,0.371
42:16.0,-0.789,0.348,0.359
42:16.0,-0.805,0.359,0.352
42:16.1,-0.816,0.352,0.359
42:16.1,-0.828,0.328,0.367
42:16.1,-0.852,0.305,0.383
42:16.1,-0.871,0.297,0.391
42:16.1,-0.879,0.297,0.398
42:16.1,-0.867,0.313,0.395
42:16.1,-0.855,0.324,0.402
42:16.1,-0.84,0.324,0.398
42:16.1,-0.824,0.316,0.398
42:16.1,-0.816,0.297,0.398
42:16.2,-0.82,0.285,0.398
42:16.2,-0.816,0.293,0.402
42:16.2,-0.813,0.313,0.41
42:16.2,-0.813,0.332,0.414
42:16.2,-0.813,0.363,0.414
42:16.2,-0.816,0.391,0.406
42:16.2,-0.82,0.402,0.402
42:16.2,-0.809,0.406,0.406
42:16.2,-0.793,0.41,0.406
42:16.2,-0.793,0.426,0.406
42:16.3,-0.793,0.438,0.414
42:16.3,-0.793,0.434,0.418
42:16.3,-0.789,0.43,0.418
42:16.3,-0.789,0.426,0.414
42:16.3,-0.797,0.418,0.41
42:16.3,-0.801,0.414,0.406
42:16.3,-0.793,0.41,0.414
42:16.3,-0.793,0.41,0.414
42:16.3,-0.805,0.402,0.414
42:16.3,-0.809,0.398,0.414
42:16.4,-0.813,0.398,0.414
42:16.4,-0.813,0.391,0.414
42:16.4,-0.82,0.383,0.406
42:16.4,-0.816,0.371,0.391
42:16.4,-0.824,0.371,0.383
42:16.4,-0.82,0.379,0.379
42:16.4,-0.816,0.391,0.375
42:16.4,-0.809,0.395,0.379
42:16.4,-0.813,0.398,0.383
42:16.4,-0.813,0.406,0.379
42:16.5,-0.809,0.41,0.379
42:16.5,-0.809,0.414,0.371
42:16.5,-0.801,0.426,0.367
42:16.5,-0.789,0.434,0.367
42:16.5,-0.801,0.438,0.359
42:16.5,-0.801,0.441,0.352
42:16.5,-0.805,0.445,0.344
42:16.5,-0.805,0.441,0.34
42:16.5,-0.809,0.426,0.34
42:16.5,-0.813,0.414,0.336
42:16.6,-0.813,0.406,0.32
42:16.6,-0.813,0.402,0.316
42:16.6,-0.816,0.395,0.309
42:16.6,-0.828,0.379,0.309
42:16.6,-0.828,0.371,0.309
42:16.6,-0.828,0.371,0.301
42:16.6,-0.828,0.379,0.297
42:16.6,-0.836,0.375,0.301
42:16.6,-0.84,0.367,0.313
42:16.6,-0.844,0.367,0.32
42:16.7,-0.844,0.363,0.332
42:16.7,-0.852,0.344,0.34
42:16.7,-0.848,0.34,0.336
42:16.7,-0.844,0.34,0.336
42:16.7,-0.848,0.34,0.34
42:16.7,-0.848,0.363,0.332
42:16.7,-0.848,0.398,0.32
42:16.7,-0.848,0.426,0.316
42:16.7,-0.844,0.449,0.313
42:16.7,-0.844,0.477,0.313
42:16.8,-0.84,0.508,0.316
42:16.8,-0.832,0.527,0.324
42:16.8,-0.828,0.527,0.34
42:16.8,-0.824,0.512,0.352
42:16.8,-0.82,0.492,0.352
42:16.8,-0.816,0.48,0.352
42:16.8,-0.809,0.469,0.348
42:16.8,-0.805,0.457,0.328
42:16.8,-0.801,0.449,0.313
42:16.8,-0.805,0.441,0.309
42:16.9,-0.809,0.43,0.309
42:16.9,-0.82,0.426,0.309
42:16.9,-0.832,0.422,0.309
42:16.9,-0.84,0.41,0.305
42:16.9,-0.852,0.41,0.289
42:16.9,-0.859,0.41,0.273
42:16.9,-0.863,0.402,0.27
42:16.9,-0.859,0.398,0.254
42:16.9,-0.855,0.395,0.25
42:16.9,-0.859,0.387,0.242
42:17.0,-0.852,0.391,0.234
42:17.0,-0.852,0.391,0.227
42:17.0,-0.848,0.395,0.227
42:17.0,-0.848,0.387,0.227
42:17.0,-0.863,0.371,0.227
42:17.0,-0.859,0.352,0.234
42:17.0,-0.863,0.34,0.234
42:17.0,-0.867,0.328,0.23
42:17.0,-0.875,0.32,0.23
42:17.0,-0.879,0.32,0.223
42:17.1,-0.883,0.32,0.219
42:17.1,-0.883,0.324,0.219
42:17.1,-0.887,0.332,0.215
42:17.1,-0.895,0.348,0.211
42:17.1,-0.902,0.355,0.207
42:17.1,-0.91,0.367,0.207
42:17.1,-0.91,0.367,0.211
42:17.1,-0.906,0.363,0.215
42:17.1,-0.902,0.359,0.215
42:17.1,-0.898,0.352,0.211
42:17.2,-0.895,0.348,0.211
42:17.2,-0.895,0.344,0.211
42:17.2,-0.895,0.34,0.211
42:17.2,-0.895,0.324,0.211
42:17.2,-0.895,0.313,0.207
42:17.2,-0.891,0.309,0.207
42:17.2,-0.895,0.305,0.195
42:17.2,-0.895,0.301,0.191
42:17.2,-0.898,0.297,0.191
42:17.2,-0.902,0.301,0.191
42:17.3,-0.906,0.297,0.199
42:17.3,-0.906,0.293,0.207
42:17.3,-0.906,0.293,0.215
42:17.3,-0.906,0.293,0.223
42:17.3,-0.898,0.289,0.23
42:17.3,-0.898,0.281,0.242
42:17.3,-0.902,0.273,0.25
42:17.3,-0.906,0.277,0.25
42:17.3,-0.906,0.293,0.25
42:17.3,-0.91,0.301,0.25
42:17.4,-0.918,0.309,0.242
42:17.4,-0.914,0.316,0.234
42:17.4,-0.914,0.324,0.23
42:17.4,-0.91,0.32,0.223
42:17.4,-0.906,0.313,0.223
42:17.4,-0.906,0.301,0.227
42:17.4,-0.91,0.281,0.234
42:17.4,-0.918,0.27,0.238
42:17.4,-0.918,0.262,0.246
42:17.4,-0.922,0.258,0.242
42:17.5,-0.922,0.27,0.242
42:17.5,-0.914,0.281,0.242
42:17.5,-0.91,0.289,0.25
42:17.5,-0.906,0.297,0.25
42:17.5,-0.914,0.297,0.242
42:17.5,-0.906,0.297,0.246
42:17.5,-0.898,0.297,0.234
42:17.5,-0.902,0.301,0.234
42:17.5,-0.906,0.305,0.238
42:17.5,-0.906,0.301,0.234
42:17.6,-0.902,0.297,0.242
42:17.6,-0.895,0.301,0.246
42:17.6,-0.891,0.313,0.254
42:17.6,-0.895,0.316,0.266
42:17.6,-0.887,0.32,0.277
42:17.6,-0.891,0.32,0.285
42:17.6,-0.898,0.313,0.285
42:17.6,-0.906,0.313,0.277
42:17.6,-0.906,0.32,0.262
42:17.6,-0.906,0.328,0.25
42:17.7,-0.902,0.324,0.246
42:17.7,-0.902,0.309,0.254
42:17.7,-0.898,0.289,0.258
42:17.7,-0.895,0.266,0.27
42:17.7,-0.898,0.242,0.277
42:17.7,-0.895,0.23,0.281
42:17.7,-0.891,0.23,0.281
42:17.7,-0.891,0.227,0.277
42:17.7,-0.898,0.227,0.266
42:17.7,-0.898,0.242,0.246
42:17.8,-0.895,0.25,0.242
42:17.8,-0.891,0.246,0.227
42:17.8,-0.891,0.246,0.219
42:17.8,-0.891,0.238,0.211
42:17.8,-0.883,0.23,0.199
42:17.8,-0.875,0.23,0.191
42:17.8,-0.879,0.219,0.191
42:17.8,-0.887,0.199,0.203
42:17.8,-0.91,0.188,0.211
42:17.8,-0.938,0.176,0.207
42:17.9,-0.953,0.172,0.203
42:17.9,-0.957,0.164,0.215
42:17.9,-0.961,0.148,0.234
42:17.9,-0.969,0.133,0.258
42:17.9,-0.98,0.125,0.273
42:17.9,-0.977,0.121,0.293
42:17.9,-0.98,0.133,0.285
42:17.9,-0.98,0.137,0.273
42:17.9,-0.969,0.145,0.258
42:17.9,-0.957,0.145,0.258
42:18.0,-0.953,0.141,0.238
42:18.0,-0.953,0.168,0.219
42:18.0,-0.949,0.223,0.191
42:18.0,-0.934,0.266,0.168
42:18.0,-0.914,0.281,0.137
42:18.0,-0.902,0.289,0.113
42:18.0,-0.918,0.305,0.074
42:18.0,-0.938,0.332,0.047
42:18.0,-0.957,0.34,0.039
42:18.0,-0.961,0.313,0.039
42:18.1,-0.957,0.289,0.043
42:18.1,-0.953,0.285,0.039
42:18.1,-0.945,0.305,0.031
42:18.1,-0.953,0.328,0.016
42:18.1,-0.945,0.348,0
42:18.1,-0.945,0.359,-0.008
42:18.1,-0.941,0.367,-0.008
42:18.1,-0.926,0.379,0.004
42:18.1,-0.914,0.387,0.02
42:18.2,-0.906,0.391,0.051
42:18.2,-0.895,0.383,0.086
42:18.2,-0.891,0.383,0.121
42:18.2,-0.883,0.379,0.156
42:18.2,-0.875,0.367,0.18
42:18.2,-0.875,0.363,0.188
42:18.2,-0.879,0.355,0.191
42:18.2,-0.887,0.352,0.18
42:18.2,-0.891,0.348,0.164
42:18.2,-0.895,0.352,0.141
42:18.2,-0.902,0.352,0.113
42:18.3,-0.918,0.359,0.094
42:18.3,-0.941,0.371,0.082
42:18.3,-0.961,0.379,0.082
42:18.3,-0.973,0.391,0.086
42:18.3,-0.977,0.391,0.09
42:18.3,-0.98,0.379,0.094
42:18.3,-0.977,0.363,0.098
42:18.3,-0.98,0.344,0.105
42:18.3,-0.977,0.324,0.105
42:18.3,-0.961,0.297,0.113
42:18.4,-0.938,0.273,0.125
42:18.4,-0.918,0.254,0.133
42:18.4,-0.906,0.234,0.137
42:18.4,-0.902,0.219,0.137
42:18.4,-0.906,0.227,0.129
42:18.4,-0.91,0.246,0.117
42:18.4,-0.922,0.254,0.117
42:18.4,-0.918,0.254,0.125
42:18.4,-0.914,0.246,0.129
42:18.4,-0.902,0.25,0.133
42:18.5,-0.898,0.254,0.137
42:18.5,-0.895,0.258,0.137
42:18.5,-0.902,0.254,0.133
42:18.5,-0.906,0.262,0.137
42:18.5,-0.918,0.277,0.137
42:18.5,-0.926,0.289,0.152
42:18.5,-0.938,0.297,0.168
42:18.5,-0.949,0.301,0.176
42:18.5,-0.965,0.293,0.18
42:18.5,-0.977,0.289,0.18
42:18.6,-0.98,0.289,0.18
42:18.6,-0.977,0.277,0.18
42:18.6,-0.965,0.266,0.176
42:18.6,-0.957,0.258,0.168
42:18.6,-0.949,0.258,0.164
42:18.6,-0.941,0.254,0.164
42:18.6,-0.938,0.258,0.152
42:18.6,-0.941,0.254,0.152
42:18.6,-0.945,0.258,0.145
42:18.6,-0.938,0.262,0.141
42:18.7,-0.922,0.273,0.141
42:18.7,-0.93,0.277,0.133
42:18.7,-0.93,0.281,0.133
42:18.7,-0.93,0.285,0.137
42:18.7,-0.926,0.289,0.141
42:18.7,-0.926,0.285,0.141
42:18.7,-0.922,0.277,0.141
42:18.7,-0.918,0.273,0.137
42:18.7,-0.918,0.27,0.145
42:18.7,-0.922,0.266,0.145
42:18.8,-0.93,0.262,0.156
42:18.8,-0.93,0.262,0.168
42:18.8,-0.926,0.262,0.168
42:18.8,-0.93,0.262,0.164
42:18.8,-0.938,0.262,0.168
42:18.8,-0.941,0.266,0.164
42:18.8,-0.941,0.266,0.164
42:18.8,-0.934,0.262,0.156
42:18.8,-0.941,0.258,0.156
42:18.8,-0.949,0.254,0.148
42:18.9,-0.949,0.254,0.152
42:18.9,-0.949,0.25,0.16
42:18.9,-0.945,0.246,0.16
42:18.9,-0.938,0.246,0.156
42:18.9,-0.938,0.246,0.156
42:18.9,-0.93,0.242,0.16
42:18.9,-0.93,0.246,0.16
42:18.9,-0.926,0.25,0.16
42:18.9,-0.934,0.242,0.16
42:18.9,-0.93,0.238,0.164
42:19.0,-0.926,0.23,0.168
42:19.0,-0.926,0.227,0.168
42:19.0,-0.938,0.227,0.168
42:19.0,-0.941,0.234,0.164
42:19.0,-0.949,0.242,0.16
42:19.0,-0.945,0.242,0.16
42:19.0,-0.945,0.25,0.156
42:19.0,-0.945,0.254,0.156
42:19.0,-0.941,0.258,0.156
42:19.0,-0.941,0.262,0.16
42:19.1,-0.941,0.258,0.164
42:19.1,-0.941,0.25,0.16
42:19.1,-0.941,0.25,0.16
42:19.1,-0.941,0.25,0.168
42:19.1,-0.941,0.242,0.172
42:19.1,-0.945,0.246,0.172
42:19.1,-0.953,0.25,0.168
42:19.1,-0.953,0.246,0.168
42:19.1,-0.953,0.246,0.164
42:19.1,-0.945,0.25,0.164
42:19.2,-0.941,0.25,0.16
42:19.2,-0.938,0.246,0.16
42:19.2,-0.934,0.242,0.16
42:19.2,-0.93,0.242,0.152
42:19.2,-0.926,0.246,0.16
42:19.2,-0.926,0.242,0.16
42:19.2,-0.922,0.242,0.168
42:19.2,-0.922,0.238,0.164
42:19.2,-0.914,0.238,0.16
42:19.2,-0.922,0.242,0.16
42:19.3,-0.926,0.246,0.168
42:19.3,-0.922,0.25,0.168
42:19.3,-0.926,0.254,0.172
42:19.3,-0.926,0.258,0.176
42:19.3,-0.926,0.27,0.176
42:19.3,-0.934,0.277,0.176
42:19.3,-0.93,0.285,0.176
42:19.3,-0.934,0.281,0.172
42:19.3,-0.934,0.281,0.172
42:19.3,-0.926,0.289,0.184
42:19.4,-0.93,0.293,0.184
42:19.4,-0.938,0.293,0.18
42:19.4,-0.938,0.289,0.18
42:19.4,-0.941,0.285,0.176
42:19.4,-0.938,0.281,0.176
42:19.4,-0.926,0.277,0.176
42:19.4,-0.918,0.273,0.18
42:19.4,-0.93,0.266,0.176
42:19.4,-0.938,0.262,0.176
42:19.4,-0.938,0.262,0.176
42:19.5,-0.934,0.266,0.176
42:19.5,-0.934,0.266,0.176
42:19.5,-0.938,0.27,0.168
42:19.5,-0.93,0.27,0.164
42:19.5,-0.938,0.273,0.168
42:19.5,-0.93,0.27,0.176
42:19.5,-0.93,0.27,0.168
42:19.5,-0.93,0.266,0.172
42:19.5,-0.926,0.273,0.176
42:19.5,-0.922,0.273,0.176
42:19.6,-0.922,0.27,0.176
42:19.6,-0.922,0.27,0.18
42:19.6,-0.922,0.27,0.176
42:19.6,-0.922,0.262,0.176
42:19.6,-0.93,0.266,0.176
42:19.6,-0.93,0.266,0.176
42:19.6,-0.922,0.266,0.176
42:19.6,-0.918,0.266,0.176
42:19.6,-0.918,0.262,0.168
42:19.6,-0.922,0.262,0.168
42:19.7,-0.926,0.266,0.168
42:19.7,-0.93,0.262,0.164
42:19.7,-0.93,0.258,0.164
42:19.7,-0.93,0.258,0.168
42:19.7,-0.93,0.258,0.164
42:19.7,-0.93,0.258,0.164
42:19.7,-0.93,0.258,0.164
42:19.7,-0.93,0.262,0.164
42:19.7,-0.93,0.262,0.164
42:19.7,-0.934,0.27,0.164
42:19.8,-0.938,0.262,0.164
42:19.8,-0.934,0.258,0.168
42:19.8,-0.934,0.254,0.168
42:19.8,-0.93,0.254,0.168
42:19.8,-0.93,0.254,0.164
42:19.8,-0.93,0.262,0.164
42:19.8,-0.938,0.258,0.168
42:19.8,-0.938,0.254,0.172
42:19.8,-0.938,0.254,0.172
42:19.8,-0.941,0.254,0.176
42:19.9,-0.941,0.254,0.172
42:19.9,-0.941,0.254,0.176
42:19.9,-0.941,0.262,0.176
42:19.9,-0.941,0.266,0.172
42:19.9,-0.945,0.262,0.172
42:19.9,-0.945,0.258,0.176
42:19.9,-0.941,0.258,0.172
42:19.9,-0.941,0.262,0.172
42:19.9,-0.93,0.258,0.176
42:19.9,-0.93,0.254,0.172
42:20.0,-0.93,0.254,0.168
42:20.0,-0.926,0.254,0.168
42:20.0,-0.926,0.254,0.168
42:20.0,-0.918,0.258,0.172
42:20.0,-0.926,0.258,0.172
42:20.0,-0.922,0.254,0.176
42:20.0,-0.926,0.254,0.168
42:20.0,-0.938,0.246,0.168
42:20.0,-0.941,0.246,0.168
42:20.0,-0.938,0.246,0.168
42:20.1,-0.938,0.246,0.168
42:20.1,-0.941,0.246,0.164
42:20.1,-0.93,0.238,0.168
42:20.1,-0.93,0.23,0.172
42:20.1,-0.934,0.219,0.172
42:20.1,-0.938,0.219,0.168
42:20.1,-0.941,0.215,0.172
42:20.1,-0.941,0.215,0.172
42:20.1,-0.945,0.215,0.172
42:20.1,-0.957,0.223,0.168
42:20.2,-0.957,0.23,0.164
42:20.2,-0.949,0.242,0.156
42:20.2,-0.945,0.25,0.156
42:20.2,-0.941,0.254,0.164
42:20.2,-0.941,0.254,0.164
42:20.2,-0.941,0.25,0.164
42:20.2,-0.941,0.25,0.172
42:20.2,-0.941,0.254,0.172
42:20.2,-0.941,0.254,0.18
42:20.2,-0.941,0.25,0.176
42:20.3,-0.945,0.254,0.176
42:20.3,-0.945,0.254,0.176
42:20.3,-0.945,0.254,0.172
42:20.3,-0.941,0.266,0.172
42:20.3,-0.941,0.273,0.176
42:20.3,-0.938,0.281,0.176
42:20.3,-0.938,0.281,0.176
42:20.3,-0.938,0.277,0.176
42:20.3,-0.934,0.27,0.18
42:20.4,-0.934,0.258,0.18
42:20.4,-0.938,0.254,0.176
42:20.4,-0.938,0.242,0.176
42:20.4,-0.93,0.23,0.176
42:20.4,-0.926,0.227,0.172
42:20.4,-0.922,0.223,0.168
42:20.4,-0.926,0.215,0.172
42:20.4,-0.926,0.203,0.176
42:20.4,-0.934,0.191,0.176
42:20.4,-0.934,0.184,0.176
42:20.4,-0.938,0.184,0.18
42:20.5,-0.938,0.191,0.188
42:20.5,-0.941,0.199,0.184
42:20.5,-0.949,0.207,0.18
42:20.5,-0.945,0.219,0.176
42:20.5,-0.957,0.23,0.18
42:20.5,-0.945,0.234,0.191
42:20.5,-0.945,0.242,0.184
42:20.5,-0.941,0.254,0.18
42:20.5,-0.941,0.266,0.18
42:20.5,-0.941,0.27,0.18
42:20.6,-0.938,0.277,0.188
42:20.6,-0.938,0.273,0.191
42:20.6,-0.934,0.27,0.195
42:20.6,-0.926,0.277,0.195
42:20.6,-0.918,0.266,0.191
42:20.6,-0.918,0.258,0.188
42:20.6,-0.922,0.246,0.188
42:20.6,-0.918,0.238,0.188
42:20.6,-0.93,0.234,0.184
42:20.6,-0.93,0.227,0.188
42:20.7,-0.934,0.223,0.188
42:20.7,-0.938,0.234,0.18
42:20.7,-0.938,0.238,0.176
42:20.7,-0.941,0.238,0.18
42:20.7,-0.941,0.242,0.18
42:20.7,-0.945,0.242,0.18
42:20.7,-0.945,0.242,0.18
42:20.7,-0.941,0.25,0.184
42:20.7,-0.945,0.246,0.188
42:20.7,-0.941,0.25,0.195
42:20.8,-0.941,0.246,0.203
42:20.8,-0.941,0.246,0.207
42:20.8,-0.941,0.242,0.207
42:20.8,-0.941,0.242,0.199
42:20.8,-0.934,0.25,0.188
42:20.8,-0.938,0.242,0.18
42:20.8,-0.938,0.234,0.176
42:20.8,-0.938,0.211,0.168
42:20.8,-0.941,0.195,0.176
42:20.8,-0.941,0.207,0.184
42:20.9,-0.93,0.223,0.184
42:20.9,-0.938,0.23,0.184
42:20.9,-0.938,0.234,0.184
42:20.9,-0.938,0.23,0.18
42:20.9,-0.93,0.223,0.176
42:20.9,-0.914,0.223,0.18
42:20.9,-0.898,0.227,0.176
42:20.9,-0.902,0.23,0.176
42:20.9,-0.91,0.238,0.176
42:20.9,-0.914,0.234,0.18
42:21.0,-0.918,0.223,0.18
42:21.0,-0.922,0.203,0.18
42:21.0,-0.914,0.176,0.18
42:21.0,-0.914,0.148,0.188
42:21.0,-0.93,0.137,0.18
42:21.0,-0.922,0.133,0.18
42:21.0,-0.922,0.148,0.172
42:21.0,-0.926,0.156,0.168
42:21.0,-0.938,0.172,0.16
42:21.1,-0.941,0.203,0.145
42:21.1,-0.945,0.219,0.133
42:21.1,-0.941,0.223,0.125
42:21.1,-0.941,0.223,0.125
42:21.1,-0.953,0.238,0.125
42:21.1,-0.977,0.242,0.121
42:21.1,-0.996,0.23,0.129
42:21.1,-1.008,0.215,0.145
42:21.1,-1.016,0.211,0.145
42:21.1,-1.016,0.211,0.141
42:21.1,-1.008,0.215,0.125
42:21.2,-0.992,0.215,0.117
42:21.2,-0.98,0.219,0.109
42:21.2,-0.969,0.219,0.109
42:21.2,-0.961,0.215,0.117
42:21.2,-0.953,0.211,0.133
42:21.2,-0.945,0.215,0.137
42:21.2,-0.938,0.219,0.145
42:21.2,-0.934,0.227,0.148
42:21.2,-0.941,0.238,0.137
42:21.2,-0.945,0.254,0.121
42:21.3,-0.945,0.27,0.105
42:21.3,-0.934,0.281,0.094
42:21.3,-0.926,0.289,0.082
42:21.3,-0.926,0.285,0.078
42:21.3,-0.926,0.285,0.074
42:21.3,-0.926,0.273,0.066
42:21.3,-0.93,0.254,0.066
42:21.3,-0.938,0.23,0.066
42:21.3,-0.953,0.219,0.07
42:21.3,-0.961,0.211,0.07
42:21.4,-0.969,0.215,0.07
42:21.4,-0.973,0.223,0.074
42:21.4,-0.961,0.227,0.074
42:21.4,-0.961,0.234,0.074
42:21.4,-0.961,0.242,0.074
42:21.4,-0.961,0.242,0.078
42:21.4,-0.969,0.242,0.082
42:21.4,-0.973,0.254,0.078
42:21.4,-0.977,0.262,0.07
42:21.4,-0.977,0.266,0.07
42:21.5,-0.969,0.281,0.07
42:21.5,-0.961,0.281,0.082
42:21.5,-0.953,0.273,0.094
42:21.5,-0.953,0.262,0.098
42:21.5,-0.961,0.258,0.102
42:21.5,-0.949,0.25,0.109
42:21.5,-0.945,0.238,0.105
42:21.5,-0.941,0.234,0.109
42:21.5,-0.938,0.242,0.113
42:21.5,-0.941,0.25,0.109
42:21.6,-0.945,0.258,0.105
42:21.6,-0.949,0.262,0.105
42:21.6,-0.953,0.266,0.105
42:21.6,-0.961,0.262,0.102
42:21.6,-0.969,0.258,0.102
42:21.6,-0.973,0.262,0.098
42:21.6,-0.969,0.277,0.09
42:21.6,-0.965,0.289,0.09
42:21.6,-0.965,0.293,0.098
42:21.6,-0.965,0.289,0.102
42:21.7,-0.965,0.27,0.105
42:21.7,-0.965,0.254,0.105
42:21.7,-0.961,0.234,0.105
42:21.7,-0.957,0.234,0.117
42:21.7,-0.957,0.234,0.129
42:21.7,-0.949,0.234,0.141
42:21.7,-0.949,0.219,0.152
42:21.7,-0.953,0.199,0.16
42:21.7,-0.953,0.184,0.152
42:21.7,-0.945,0.176,0.145
42:21.8,-0.945,0.176,0.145
42:21.8,-0.945,0.191,0.137
42:21.8,-0.949,0.188,0.133
42:21.8,-0.945,0.184,0.129
42:21.8,-0.941,0.191,0.129
42:21.8,-0.938,0.207,0.133
42:21.8,-0.941,0.207,0.137
42:21.8,-0.945,0.188,0.148
42:21.8,-0.945,0.16,0.156
42:21.8,-0.941,0.141,0.152
42:21.9,-0.941,0.141,0.145
42:21.9,-0.949,0.16,0.141
42:21.9,-0.957,0.188,0.137
42:21.9,-0.961,0.211,0.137
42:21.9,-0.957,0.227,0.141
42:21.9,-0.953,0.223,0.152
42:21.9,-0.945,0.215,0.156
42:21.9,-0.945,0.219,0.16
42:21.9,-0.945,0.234,0.152
42:21.9,-0.953,0.227,0.152
42:22.0,-0.953,0.215,0.156
42:22.0,-0.957,0.215,0.164
42:22.0,-0.957,0.219,0.156
42:22.0,-0.957,0.23,0.152
42:22.0,-0.969,0.227,0.148
42:22.0,-0.957,0.203,0.148
42:22.0,-0.953,0.199,0.137
42:22.0,-0.953,0.211,0.129
42:22.0,-0.957,0.219,0.125
42:22.0,-0.961,0.227,0.117
42:22.1,-0.961,0.227,0.125
42:22.1,-0.953,0.223,0.129
42:22.1,-0.945,0.223,0.133
42:22.1,-0.949,0.211,0.137
42:22.1,-0.949,0.195,0.145
42:22.1,-0.945,0.191,0.152
42:22.1,-0.949,0.191,0.148
42:22.1,-0.957,0.199,0.152
42:22.1,-0.953,0.199,0.156
42:22.1,-0.957,0.191,0.16
42:22.2,-0.953,0.199,0.164
42:22.2,-0.949,0.199,0.164
42:22.2,-0.945,0.211,0.164
42:22.2,-0.945,0.207,0.164
42:22.2,-0.949,0.215,0.164
42:22.2,-0.953,0.215,0.156
42:22.2,-0.953,0.215,0.156
42:22.2,-0.953,0.215,0.156
42:22.2,-0.945,0.215,0.16
42:22.2,-0.941,0.219,0.156
42:22.3,-0.941,0.219,0.156
42:22.3,-0.941,0.223,0.156
42:22.3,-0.953,0.219,0.152
42:22.3,-0.957,0.215,0.152
42:22.3,-0.957,0.207,0.145
42:22.3,-0.949,0.207,0.141
42:22.3,-0.949,0.207,0.141
42:22.3,-0.953,0.215,0.141
42:22.3,-0.949,0.219,0.141
42:22.3,-0.945,0.219,0.145
42:22.4,-0.945,0.211,0.148
42:22.4,-0.945,0.207,0.148
42:22.4,-0.945,0.207,0.152
42:22.4,-0.945,0.207,0.152
42:22.4,-0.949,0.207,0.148
42:22.4,-0.953,0.211,0.152
42:22.4,-0.957,0.199,0.156
42:22.4,-0.953,0.203,0.164
42:22.4,-0.945,0.203,0.16
42:22.4,-0.953,0.199,0.16
42:22.5,-0.949,0.203,0.164
42:22.5,-0.949,0.207,0.164
42:22.5,-0.945,0.211,0.164
42:22.5,-0.945,0.211,0.16
42:22.5,-0.953,0.211,0.16
42:22.5,-0.945,0.215,0.164
42:22.5,-0.941,0.215,0.16
42:22.5,-0.941,0.215,0.16
42:22.5,-0.945,0.219,0.16
42:22.5,-0.941,0.219,0.16
42:22.6,-0.941,0.219,0.156
42:22.6,-0.938,0.223,0.152
42:22.6,-0.941,0.219,0.156
42:22.6,-0.941,0.219,0.148
42:22.6,-0.945,0.219,0.152
42:22.6,-0.945,0.223,0.148
42:22.6,-0.949,0.223,0.145
42:22.6,-0.949,0.223,0.152
42:22.6,-0.953,0.219,0.156
42:22.6,-0.953,0.219,0.156
42:22.7,-0.949,0.219,0.156
42:22.7,-0.953,0.219,0.16
42:22.7,-0.957,0.223,0.16
42:22.7,-0.953,0.223,0.16
42:22.7,-0.957,0.223,0.156
42:22.7,-0.961,0.219,0.16
42:22.7,-0.957,0.219,0.16
42:22.7,-0.961,0.219,0.16
42:22.7,-0.957,0.215,0.16
42:22.7,-0.957,0.211,0.16
42:22.8,-0.961,0.199,0.156
42:22.8,-0.953,0.199,0.156
42:22.8,-0.953,0.199,0.152
42:22.8,-0.949,0.191,0.156
42:22.8,-0.945,0.199,0.164
42:22.8,-0.945,0.199,0.164
42:22.8,-0.945,0.203,0.16
42:22.8,-0.949,0.199,0.16
42:22.8,-0.949,0.195,0.156
42:22.8,-0.957,0.203,0.156
42:22.9,-0.957,0.207,0.152
42:22.9,-0.957,0.215,0.152
42:22.9,-0.957,0.215,0.152
42:22.9,-0.949,0.215,0.152
42:22.9,-0.949,0.219,0.148
42:22.9,-0.945,0.223,0.152
42:22.9,-0.949,0.223,0.16
42:22.9,-0.957,0.223,0.156
42:22.9,-0.961,0.227,0.156
42:22.9,-0.961,0.227,0.156
42:23.0,-0.957,0.223,0.156
42:23.0,-0.953,0.227,0.148
42:23.0,-0.957,0.23,0.141
42:23.0,-0.953,0.227,0.141
42:23.0,-0.953,0.227,0.141
42:23.0,-0.941,0.211,0.148
42:23.0,-0.941,0.211,0.145
42:23.0,-0.945,0.207,0.152
42:23.0,-0.941,0.207,0.156
42:23.0,-0.941,0.207,0.16
42:23.1,-0.941,0.203,0.168
42:23.1,-0.941,0.199,0.164
42:23.1,-0.941,0.191,0.152
42:23.1,-0.945,0.199,0.152
42:23.1,-0.945,0.207,0.145
42:23.1,-0.941,0.215,0.145
42:23.1,-0.941,0.223,0.145
42:23.1,-0.953,0.223,0.148
42:23.1,-0.949,0.23,0.148
42:23.1,-0.953,0.234,0.141
42:23.2,-0.949,0.246,0.137
42:23.2,-0.949,0.254,0.137
42:23.2,-0.945,0.254,0.145
42:23.2,-0.953,0.246,0.145
42:23.2,-0.957,0.246,0.145
42:23.2,-0.957,0.242,0.141
42:23.2,-0.953,0.246,0.145
42:23.2,-0.953,0.246,0.148
42:23.2,-0.949,0.234,0.148
42:23.3,-0.941,0.234,0.148
42:23.3,-0.949,0.227,0.152
42:23.3,-0.953,0.23,0.152
42:23.3,-0.953,0.227,0.148
42:23.3,-0.957,0.227,0.148
42:23.3,-0.953,0.223,0.152
42:23.3,-0.949,0.219,0.148
42:23.3,-0.945,0.215,0.152
42:23.3,-0.941,0.215,0.156
42:23.3,-0.945,0.203,0.148
42:23.3,-0.945,0.191,0.156
42:23.4,-0.945,0.184,0.156
42:23.4,-0.953,0.184,0.16
42:23.4,-0.957,0.191,0.16
42:23.4,-0.953,0.199,0.164
42:23.4,-0.953,0.203,0.16
42:23.4,-0.953,0.203,0.152
42:23.4,-0.945,0.203,0.156
42:23.4,-0.945,0.215,0.156
42:23.4,-0.945,0.211,0.152
42:23.4,-0.949,0.207,0.148
42:23.5,-0.953,0.199,0.152
42:23.5,-0.953,0.195,0.156
42:23.5,-0.957,0.199,0.16
42:23.5,-0.953,0.199,0.156
42:23.5,-0.961,0.207,0.148
42:23.5,-0.961,0.203,0.152
42:23.5,-0.957,0.199,0.152
42:23.5,-0.953,0.203,0.148
42:23.5,-0.949,0.211,0.148
42:23.5,-0.945,0.215,0.156
42:23.6,-0.941,0.215,0.156
42:23.6,-0.949,0.215,0.16
42:23.6,-0.953,0.219,0.164
42:23.6,-0.957,0.219,0.16
42:23.6,-0.953,0.219,0.16
42:23.6,-0.949,0.219,0.164
42:23.6,-0.949,0.219,0.168
42:23.6,-0.945,0.215,0.164
42:23.6,-0.945,0.215,0.164
42:23.6,-0.945,0.211,0.164
42:23.7,-0.949,0.211,0.164
42:23.7,-0.953,0.203,0.16
42:23.7,-0.957,0.203,0.168
42:23.7,-0.957,0.199,0.168
42:23.7,-0.957,0.195,0.164
42:23.7,-0.953,0.195,0.164
42:23.7,-0.949,0.199,0.16
42:23.7,-0.953,0.195,0.156
42:23.7,-0.957,0.195,0.152
42:23.7,-0.961,0.199,0.156
42:23.8,-0.965,0.195,0.164
42:23.8,-0.953,0.199,0.164
42:23.8,-0.945,0.203,0.168
42:23.8,-0.953,0.203,0.164
42:23.8,-0.953,0.207,0.16
42:23.8,-0.949,0.215,0.16
42:23.8,-0.945,0.215,0.164
42:23.8,-0.945,0.215,0.168
42:23.8,-0.945,0.211,0.172
42:23.8,-0.945,0.199,0.172
42:23.9,-0.945,0.184,0.176
42:23.9,-0.953,0.18,0.172
42:23.9,-0.957,0.18,0.164
42:23.9,-0.961,0.184,0.16
42:23.9,-0.953,0.195,0.152
42:23.9,-0.957,0.207,0.16
42:23.9,-0.957,0.207,0.16
42:23.9,-0.949,0.211,0.16
42:23.9,-0.945,0.199,0.164
42:23.9,-0.941,0.188,0.172
42:24.0,-0.941,0.188,0.176
42:24.0,-0.941,0.191,0.18
42:24.0,-0.941,0.188,0.176
42:24.0,-0.945,0.199,0.176
42:24.0,-0.957,0.199,0.172
42:24.0,-0.953,0.203,0.176
42:24.0,-0.957,0.211,0.172
42:24.0,-0.949,0.211,0.168
42:24.0,-0.945,0.207,0.168
42:24.0,-0.945,0.203,0.172
42:24.1,-0.945,0.207,0.164
42:24.1,-0.941,0.211,0.168
42:24.1,-0.945,0.211,0.168
42:24.1,-0.949,0.215,0.164
42:24.1,-0.949,0.219,0.164
42:24.1,-0.953,0.219,0.168
42:24.1,-0.957,0.215,0.172
42:24.1,-0.949,0.207,0.176
42:24.1,-0.945,0.203,0.172
42:24.1,-0.941,0.195,0.172
42:24.2,-0.941,0.203,0.176
42:24.2,-0.941,0.199,0.172
42:24.2,-0.945,0.199,0.172
42:24.2,-0.949,0.195,0.172
42:24.2,-0.949,0.195,0.172
42:24.2,-0.953,0.188,0.172
42:24.2,-0.957,0.188,0.172
42:24.2,-0.953,0.188,0.176
42:24.2,-0.953,0.195,0.176
42:24.2,-0.949,0.195,0.172
42:24.3,-0.953,0.199,0.168
42:24.3,-0.957,0.207,0.168
42:24.3,-0.953,0.207,0.164
42:24.3,-0.945,0.211,0.168
42:24.3,-0.953,0.211,0.172
42:24.3,-0.953,0.207,0.172
42:24.3,-0.949,0.199,0.176
42:24.3,-0.945,0.191,0.176
42:24.3,-0.949,0.199,0.176
42:24.3,-0.945,0.199,0.176
42:24.4,-0.941,0.195,0.176
42:24.4,-0.945,0.195,0.172
42:24.4,-0.949,0.188,0.172
42:24.4,-0.949,0.199,0.168
42:24.4,-0.949,0.203,0.172
42:24.4,-0.949,0.211,0.168
42:24.4,-0.953,0.211,0.172
42:24.4,-0.953,0.211,0.168
42:24.4,-0.949,0.211,0.168
42:24.4,-0.953,0.207,0.168
42:24.5,-0.949,0.203,0.16
42:24.5,-0.949,0.203,0.16
42:24.5,-0.953,0.195,0.168
42:24.5,-0.949,0.188,0.172
42:24.5,-0.961,0.188,0.172
42:24.5,-0.957,0.184,0.176
42:24.5,-0.961,0.195,0.172
42:24.5,-0.957,0.188,0.164
42:24.5,-0.957,0.195,0.164
42:24.5,-0.949,0.195,0.172
42:24.6,-0.953,0.199,0.172
42:24.6,-0.949,0.207,0.168
42:24.6,-0.945,0.203,0.168
42:24.6,-0.949,0.199,0.172
42:24.6,-0.953,0.207,0.168
42:24.6,-0.949,0.207,0.164
42:24.6,-0.953,0.207,0.164
42:24.6,-0.949,0.211,0.16
42:24.6,-0.953,0.207,0.164
42:24.6,-0.953,0.207,0.164
42:24.7,-0.945,0.203,0.156
42:24.7,-0.945,0.203,0.164
42:24.7,-0.945,0.203,0.172
42:24.7,-0.945,0.203,0.172
42:24.7,-0.949,0.207,0.172
42:24.7,-0.949,0.207,0.172
42:24.7,-0.953,0.207,0.168
42:24.7,-0.949,0.207,0.172
42:24.7,-0.945,0.211,0.168
42:24.7,-0.949,0.215,0.164
42:24.8,-0.945,0.215,0.164
42:24.8,-0.945,0.211,0.164
42:24.8,-0.953,0.207,0.16
42:24.8,-0.949,0.199,0.156
42:24.8,-0.953,0.203,0.164
42:24.8,-0.953,0.207,0.164
42:24.8,-0.953,0.211,0.164
42:24.8,-0.957,0.207,0.156
42:24.8,-0.965,0.207,0.16
42:24.8,-0.961,0.207,0.156
42:24.9,-0.957,0.207,0.156
42:24.9,-0.957,0.199,0.16
42:24.9,-0.957,0.195,0.172
42:24.9,-0.961,0.191,0.172
42:24.9,-0.961,0.191,0.168
42:24.9,-0.965,0.188,0.16
42:24.9,-0.965,0.195,0.16
42:24.9,-0.965,0.199,0.148
42:24.9,-0.965,0.211,0.148
42:24.9,-0.969,0.219,0.148
42:25.0,-0.957,0.219,0.152
42:25.0,-0.945,0.219,0.16
42:25.0,-0.945,0.215,0.168
42:25.0,-0.945,0.215,0.168
42:25.0,-0.953,0.211,0.164
42:25.0,-0.949,0.207,0.168
42:25.0,-0.953,0.207,0.16
42:25.0,-0.957,0.203,0.152
42:25.0,-0.953,0.199,0.156
42:25.0,-0.953,0.195,0.156
42:25.1,-0.957,0.188,0.16
42:25.1,-0.957,0.184,0.164
42:25.1,-0.949,0.18,0.164
42:25.1,-0.941,0.18,0.156
42:25.1,-0.945,0.18,0.152
42:25.1,-0.949,0.184,0.148
42:25.1,-0.945,0.188,0.152
42:25.1,-0.949,0.191,0.156
42:25.1,-0.949,0.195,0.156
42:25.1,-0.949,0.199,0.16
42:25.2,-0.953,0.195,0.16
42:25.2,-0.957,0.188,0.16
42:25.2,-0.957,0.184,0.168
42:25.2,-0.961,0.18,0.168
42:25.2,-0.961,0.18,0.164
42:25.2,-0.961,0.184,0.164
42:25.2,-0.953,0.18,0.16
42:25.2,-0.965,0.188,0.156
42:25.2,-0.965,0.191,0.152
42:25.2,-0.961,0.199,0.152
42:25.3,-0.961,0.203,0.152
42:25.3,-0.957,0.199,0.156
42:25.3,-0.957,0.195,0.16
42:25.3,-0.953,0.203,0.156
42:25.3,-0.949,0.203,0.152
42:25.3,-0.949,0.199,0.156
42:25.3,-0.949,0.199,0.156
42:25.3,-0.949,0.191,0.156
42:25.3,-0.949,0.188,0.164
42:25.3,-0.957,0.184,0.156
42:25.4,-0.961,0.18,0.156
42:25.4,-0.953,0.18,0.16
42:25.4,-0.949,0.188,0.16
42:25.4,-0.949,0.184,0.16
42:25.4,-0.953,0.184,0.164
42:25.4,-0.953,0.191,0.16
42:25.4,-0.949,0.195,0.16
42:25.4,-0.957,0.207,0.152
42:25.4,-0.957,0.211,0.145
42:25.5,-0.957,0.207,0.148
42:25.5,-0.957,0.203,0.148
42:25.5,-0.957,0.199,0.152
42:25.5,-0.965,0.199,0.156
42:25.5,-0.957,0.203,0.16
42:25.5,-0.961,0.207,0.164
42:25.5,-0.957,0.199,0.172
42:25.5,-0.957,0.199,0.164
42:25.5,-0.961,0.203,0.16
42:25.5,-0.965,0.203,0.16
42:25.5,-0.965,0.203,0.156
42:25.6,-0.961,0.203,0.156
42:25.6,-0.961,0.199,0.16
42:25.6,-0.953,0.199,0.164
42:25.6,-0.957,0.199,0.172
42:25.6,-0.953,0.207,0.172
42:25.6,-0.945,0.207,0.172
42:25.6,-0.941,0.207,0.176
42:25.6,-0.941,0.203,0.176
42:25.6,-0.941,0.211,0.176
42:25.6,-0.938,0.215,0.172
42:25.7,-0.941,0.211,0.168
42:25.7,-0.945,0.215,0.164
42:25.7,-0.949,0.219,0.164
42:25.7,-0.953,0.219,0.16
42:25.7,-0.953,0.219,0.152
42:25.7,-0.957,0.219,0.148
42:25.7,-0.957,0.219,0.152
42:25.7,-0.957,0.215,0.156
42:25.7,-0.961,0.215,0.156
42:25.7,-0.957,0.211,0.16
42:25.8,-0.953,0.199,0.164
42:25.8,-0.949,0.184,0.16
42:25.8,-0.945,0.176,0.152
42:25.8,-0.941,0.176,0.156
42:25.8,-0.941,0.164,0.164
42:25.8,-0.941,0.164,0.172
42:25.8,-0.949,0.164,0.176
42:25.8,-0.941,0.172,0.176
42:25.8,-0.941,0.176,0.176
42:25.8,-0.941,0.18,0.18
42:25.9,-0.941,0.184,0.176
42:25.9,-0.949,0.199,0.176
42:25.9,-0.961,0.207,0.176
42:25.9,-0.965,0.215,0.176
42:25.9,-0.965,0.219,0.172
42:25.9,-0.965,0.215,0.176
42:25.9,-0.965,0.219,0.172
42:25.9,-0.961,0.219,0.168
42:25.9,-0.953,0.223,0.168
42:25.9,-0.949,0.219,0.168
42:26.0,-0.949,0.211,0.168
42:26.0,-0.945,0.207,0.168
42:26.0,-0.945,0.199,0.172
42:26.0,-0.945,0.195,0.172
42:26.0,-0.961,0.188,0.168
42:26.0,-0.953,0.184,0.172
42:26.0,-0.953,0.184,0.168
42:26.0,-0.953,0.191,0.168
42:26.0,-0.945,0.191,0.172
42:26.0,-0.945,0.188,0.176
42:26.1,-0.945,0.188,0.176
42:26.1,-0.945,0.195,0.176
42:26.1,-0.945,0.207,0.18
42:26.1,-0.949,0.203,0.18
42:26.1,-0.945,0.207,0.176
42:26.1,-0.949,0.207,0.176
42:26.1,-0.957,0.211,0.176
42:26.1,-0.957,0.211,0.176
42:26.1,-0.957,0.215,0.176
42:26.2,-0.949,0.219,0.176
42:26.2,-0.945,0.219,0.176
42:26.2,-0.941,0.215,0.176
42:26.2,-0.941,0.211,0.176
42:26.2,-0.938,0.203,0.176
42:26.2,-0.938,0.203,0.172
42:26.2,-0.941,0.203,0.164
42:26.2,-0.945,0.203,0.168
42:26.2,-0.953,0.207,0.168
42:26.2,-0.949,0.211,0.168
42:26.2,-0.945,0.207,0.172
42:26.3,-0.945,0.207,0.172
42:26.3,-0.945,0.207,0.172
42:26.3,-0.945,0.203,0.172
42:26.3,-0.941,0.211,0.176
42:26.3,-0.949,0.203,0.18
42:26.3,-0.953,0.203,0.18
42:26.3,-0.945,0.199,0.18
42:26.3,-0.941,0.199,0.18
42:26.3,-0.945,0.207,0.176
42:26.3,-0.949,0.211,0.172
42:26.4,-0.949,0.207,0.172
42:26.4,-0.945,0.199,0.172
42:26.4,-0.941,0.199,0.176
42:26.4,-0.945,0.199,0.176
42:26.4,-0.945,0.203,0.176
42:26.4,-0.945,0.207,0.172
42:26.4,-0.949,0.207,0.164
42:26.4,-0.949,0.203,0.168
42:26.4,-0.949,0.199,0.176
42:26.4,-0.949,0.203,0.18
42:26.5,-0.953,0.211,0.18
42:26.5,-0.945,0.215,0.176
42:26.5,-0.957,0.207,0.176
42:26.5,-0.961,0.211,0.172
42:26.5,-0.969,0.215,0.172
42:26.5,-0.957,0.211,0.18
42:26.5,-0.949,0.207,0.176
42:26.5,-0.945,0.199,0.176
42:26.5,-0.941,0.199,0.176
42:26.5,-0.949,0.191,0.18
42:26.6,-0.953,0.195,0.176
42:26.6,-0.957,0.195,0.176
42:26.6,-0.961,0.199,0.176
42:26.6,-0.957,0.207,0.172
42:26.6,-0.961,0.215,0.164
42:26.6,-0.957,0.219,0.168
42:26.6,-0.953,0.219,0.172
42:26.6,-0.949,0.211,0.176
42:26.6,-0.949,0.207,0.176
42:26.6,-0.949,0.195,0.172
42:26.7,-0.949,0.199,0.172
42:26.7,-0.945,0.191,0.172
42:26.7,-0.945,0.191,0.176
42:26.7,-0.945,0.184,0.176
42:26.7,-0.941,0.188,0.176
42:26.7,-0.941,0.195,0.168
42:26.7,-0.941,0.203,0.164
42:26.7,-0.945,0.211,0.164
42:26.7,-0.945,0.215,0.164
42:26.7,-0.945,0.215,0.172
42:26.8,-0.941,0.219,0.172
42:26.8,-0.949,0.219,0.176
42:26.8,-0.949,0.227,0.176
42:26.8,-0.949,0.223,0.176
42:26.8,-0.953,0.219,0.18
42:26.8,-0.957,0.223,0.176
42:26.8,-0.953,0.227,0.176
42:26.8,-0.949,0.23,0.18
42:26.8,-0.949,0.234,0.172
42:26.8,-0.953,0.23,0.168
42:26.9,-0.949,0.223,0.172
42:26.9,-0.941,0.219,0.168
42:26.9,-0.941,0.211,0.164
42:26.9,-0.941,0.195,0.164
42:26.9,-0.949,0.188,0.168
42:26.9,-0.945,0.195,0.168
42:26.9,-0.945,0.199,0.168
42:26.9,-0.941,0.211,0.168
42:26.9,-0.941,0.215,0.172
42:26.9,-0.941,0.215,0.172
42:27.0,-0.945,0.215,0.172
42:27.0,-0.945,0.215,0.164
42:27.0,-0.945,0.203,0.164
42:27.0,-0.941,0.207,0.168
42:27.0,-0.961,0.215,0.172
42:27.0,-0.961,0.219,0.172
42:27.0,-0.961,0.219,0.172
42:27.0,-0.957,0.219,0.176
42:27.0,-0.953,0.219,0.172
42:27.0,-0.949,0.219,0.168
42:27.1,-0.949,0.215,0.164
42:27.1,-0.949,0.207,0.16
42:27.1,-0.953,0.199,0.156
42:27.1,-0.949,0.191,0.156
42:27.1,-0.945,0.18,0.16
42:27.1,-0.953,0.18,0.164
42:27.1,-0.953,0.176,0.168
42:27.1,-0.949,0.176,0.172
42:27.1,-0.957,0.18,0.172
42:27.1,-0.961,0.191,0.172
42:27.2,-0.965,0.207,0.172
42:27.2,-0.965,0.219,0.172
42:27.2,-0.961,0.234,0.164
42:27.2,-0.953,0.246,0.164
42:27.2,-0.957,0.234,0.16
42:27.2,-0.957,0.238,0.164
42:27.2,-0.957,0.238,0.168
42:27.2,-0.953,0.23,0.172
42:27.2,-0.953,0.227,0.176
42:27.2,-0.953,0.211,0.176
42:27.3,-0.949,0.195,0.176
42:27.3,-0.949,0.176,0.168
42:27.3,-0.949,0.164,0.168
42:27.3,-0.945,0.156,0.16
42:27.3,-0.945,0.156,0.16
42:27.3,-0.945,0.156,0.16
42:27.3,-0.945,0.16,0.164
42:27.3,-0.941,0.176,0.168
42:27.3,-0.941,0.184,0.172
42:27.3,-0.945,0.188,0.168
42:27.4,-0.945,0.195,0.168
42:27.4,-0.945,0.203,0.172
42:27.4,-0.949,0.203,0.18
42:27.4,-0.957,0.195,0.176
42:27.4,-0.957,0.203,0.176
42:27.4,-0.953,0.215,0.168
42:27.4,-0.949,0.215,0.168
42:27.4,-0.949,0.219,0.164
42:27.4,-0.949,0.219,0.156
42:27.4,-0.949,0.227,0.156
42:27.5,-0.945,0.23,0.156
42:27.5,-0.945,0.227,0.156
42:27.5,-0.953,0.223,0.156
42:27.5,-0.949,0.219,0.16
42:27.5,-0.957,0.207,0.16
42:27.5,-0.949,0.199,0.168
42:27.5,-0.949,0.195,0.164
42:27.5,-0.953,0.195,0.168
42:27.5,-0.957,0.199,0.172
42:27.5,-0.957,0.199,0.176
42:27.6,-0.961,0.199,0.176
42:27.6,-0.957,0.199,0.18
42:27.6,-0.957,0.195,0.176
42:27.6,-0.957,0.188,0.176
42:27.6,-0.957,0.184,0.176
42:27.6,-0.961,0.184,0.176
42:27.6,-0.961,0.184,0.172
42:27.6,-0.961,0.191,0.168
42:27.6,-0.961,0.188,0.164
42:27.7,-0.957,0.195,0.16
42:27.7,-0.957,0.195,0.16
42:27.7,-0.957,0.191,0.16
42:27.7,-0.957,0.184,0.16
42:27.7,-0.953,0.184,0.164
42:27.7,-0.949,0.195,0.164
42:27.7,-0.945,0.191,0.164
42:27.7,-0.941,0.191,0.168
42:27.7,-0.949,0.184,0.168
42:27.7,-0.949,0.184,0.164
42:27.7,-0.945,0.184,0.168
42:27.8,-0.949,0.184,0.172
42:27.8,-0.953,0.191,0.168
42:27.8,-0.961,0.195,0.172
42:27.8,-0.961,0.191,0.172
42:27.8,-0.949,0.199,0.172
42:27.8,-0.941,0.195,0.168
42:27.8,-0.941,0.199,0.168
42:27.8,-0.949,0.199,0.168
42:27.8,-0.953,0.188,0.168
42:27.8,-0.953,0.188,0.164
42:27.9,-0.953,0.195,0.16
42:27.9,-0.957,0.195,0.164
42:27.9,-0.961,0.203,0.164
42:27.9,-0.961,0.211,0.168
42:27.9,-0.961,0.207,0.164
42:27.9,-0.953,0.211,0.16
42:27.9,-0.945,0.219,0.16
42:27.9,-0.945,0.223,0.156
42:27.9,-0.941,0.227,0.164
42:27.9,-0.941,0.227,0.164
42:28.0,-0.945,0.23,0.164
42:28.0,-0.945,0.227,0.168
42:28.0,-0.941,0.223,0.168
42:28.0,-0.945,0.215,0.172
42:28.0,-0.957,0.215,0.168
42:28.0,-0.949,0.207,0.172
42:28.0,-0.953,0.199,0.172
42:28.0,-0.953,0.195,0.176
42:28.0,-0.953,0.191,0.172
42:28.0,-0.949,0.191,0.172
42:28.1,-0.953,0.191,0.168
42:28.1,-0.953,0.184,0.164
42:28.1,-0.953,0.188,0.164
42:28.1,-0.953,0.195,0.168
42:28.1,-0.957,0.191,0.16
42:28.1,-0.961,0.188,0.16
42:28.1,-0.953,0.191,0.164
42:28.1,-0.957,0.195,0.16
42:28.1,-0.957,0.199,0.16
42:28.1,-0.957,0.199,0.16
42:28.2,-0.957,0.203,0.164
42:28.2,-0.961,0.207,0.168
42:28.2,-0.957,0.207,0.172
42:28.2,-0.949,0.207,0.172
42:28.2,-0.949,0.203,0.176
42:28.2,-0.945,0.203,0.172
42:28.2,-0.945,0.207,0.172
42:28.2,-0.949,0.207,0.168
42:28.2,-0.945,0.219,0.164
42:28.2,-0.949,0.223,0.16
42:28.3,-0.949,0.215,0.156
42:28.3,-0.953,0.207,0.156
42:28.3,-0.953,0.203,0.16
42:28.3,-0.945,0.203,0.16
42:28.3,-0.949,0.195,0.164
42:28.3,-0.949,0.191,0.164
42:28.3,-0.945,0.188,0.164
42:28.3,-0.949,0.188,0.164
42:28.3,-0.953,0.195,0.16
42:28.4,-0.953,0.203,0.164
42:28.4,-0.953,0.211,0.16
42:28.4,-0.949,0.211,0.16
42:28.4,-0.949,0.215,0.16
42:28.4,-0.949,0.219,0.164
42:28.4,-0.949,0.219,0.168
42:28.4,-0.945,0.219,0.168
42:28.4,-0.949,0.219,0.164
42:28.4,-0.949,0.219,0.16
42:28.4,-0.953,0.219,0.164
42:28.4,-0.949,0.219,0.168
42:28.5,-0.949,0.219,0.168
42:28.5,-0.953,0.215,0.168
42:28.5,-0.957,0.207,0.168
42:28.5,-0.961,0.203,0.164
42:28.5,-0.965,0.215,0.16
42:28.5,-0.949,0.207,0.172
42:28.5,-0.945,0.199,0.168
42:28.5,-0.945,0.199,0.164
42:28.5,-0.945,0.203,0.164
42:28.5,-0.945,0.195,0.172
42:28.6,-0.945,0.191,0.172
42:28.6,-0.945,0.199,0.164
42:28.6,-0.945,0.203,0.16
42:28.6,-0.953,0.203,0.164
42:28.6,-0.957,0.211,0.16
42:28.6,-0.953,0.215,0.164
42:28.6,-0.953,0.215,0.164
42:28.6,-0.945,0.215,0.168
42:28.6,-0.945,0.211,0.168
42:28.6,-0.949,0.207,0.172
42:28.7,-0.949,0.207,0.172
42:28.7,-0.953,0.203,0.168
42:28.7,-0.953,0.207,0.164
42:28.7,-0.953,0.203,0.164
42:28.7,-0.957,0.211,0.164
42:28.7,-0.957,0.207,0.164
42:28.7,-0.961,0.203,0.164
42:28.7,-0.961,0.199,0.164
42:28.7,-0.957,0.199,0.16
42:28.7,-0.949,0.195,0.168
42:28.8,-0.945,0.203,0.172
42:28.8,-0.945,0.203,0.172
42:28.8,-0.953,0.191,0.176
42:28.8,-0.957,0.191,0.176
42:28.8,-0.953,0.203,0.172
42:28.8,-0.945,0.203,0.172
42:28.8,-0.945,0.207,0.172
42:28.8,-0.949,0.207,0.172
42:28.8,-0.949,0.207,0.176
42:28.8,-0.953,0.203,0.172
42:28.9,-0.957,0.195,0.168
42:28.9,-0.957,0.188,0.168
42:28.9,-0.961,0.188,0.16
42:28.9,-0.957,0.195,0.16
42:28.9,-0.957,0.203,0.16
42:28.9,-0.953,0.207,0.168
42:28.9,-0.949,0.207,0.168
42:28.9,-0.953,0.195,0.168
42:28.9,-0.957,0.191,0.164
42:28.9,-0.953,0.195,0.168
42:29.0,-0.957,0.191,0.168
42:29.0,-0.961,0.188,0.172
42:29.0,-0.961,0.195,0.168
42:29.0,-0.957,0.199,0.164
42:29.0,-0.957,0.199,0.164
42:29.0,-0.949,0.203,0.172
42:29.0,-0.945,0.211,0.172
42:29.0,-0.945,0.207,0.176
42:29.0,-0.945,0.207,0.18
42:29.0,-0.949,0.203,0.176
42:29.1,-0.949,0.207,0.172
42:29.1,-0.949,0.207,0.172
42:29.1,-0.953,0.211,0.164
42:29.1,-0.957,0.199,0.16
42:29.1,-0.957,0.191,0.168
42:29.1,-0.957,0.191,0.172
42:29.1,-0.945,0.199,0.176
42:29.1,-0.945,0.203,0.176
42:29.1,-0.949,0.203,0.176
42:29.1,-0.949,0.203,0.172
42:29.2,-0.945,0.199,0.172
42:29.2,-0.945,0.203,0.172
42:29.2,-0.945,0.203,0.172
42:29.2,-0.945,0.207,0.168
42:29.2,-0.945,0.211,0.168
42:29.2,-0.949,0.207,0.168
42:29.2,-0.945,0.215,0.172
42:29.2,-0.949,0.215,0.168
42:29.2,-0.949,0.207,0.168
42:29.2,-0.949,0.203,0.172
42:29.3,-0.941,0.203,0.168
42:29.3,-0.945,0.199,0.168
42:29.3,-0.949,0.199,0.172
42:29.3,-0.953,0.195,0.172
42:29.3,-0.953,0.199,0.172
42:29.3,-0.949,0.199,0.164
42:29.3,-0.949,0.203,0.168
42:29.3,-0.949,0.203,0.168
42:29.3,-0.953,0.203,0.172
42:29.3,-0.953,0.195,0.172
42:29.4,-0.949,0.195,0.176
42:29.4,-0.953,0.199,0.172
42:29.4,-0.949,0.195,0.172
42:29.4,-0.945,0.195,0.172
42:29.4,-0.949,0.199,0.172
42:29.4,-0.945,0.203,0.168
42:29.4,-0.949,0.203,0.172
42:29.4,-0.957,0.199,0.176
42:29.4,-0.953,0.203,0.172
42:29.4,-0.953,0.211,0.172
42:29.5,-0.949,0.207,0.172
42:29.5,-0.953,0.195,0.168
42:29.5,-0.953,0.191,0.168
42:29.5,-0.953,0.188,0.168
42:29.5,-0.957,0.184,0.164
42:29.5,-0.949,0.184,0.168
42:29.5,-0.949,0.18,0.164
42:29.5,-0.945,0.18,0.164
42:29.5,-0.945,0.18,0.164
42:29.5,-0.945,0.18,0.156
42:29.6,-0.949,0.184,0.16
42:29.6,-0.953,0.18,0.164
42:29.6,-0.949,0.184,0.168
42:29.6,-0.945,0.188,0.172
42:29.6,-0.945,0.184,0.172
42:29.6,-0.949,0.172,0.172
42:29.6,-0.945,0.152,0.168
42:29.6,-0.941,0.156,0.16
42:29.6,-0.941,0.168,0.164
42:29.6,-0.941,0.172,0.164
42:29.7,-0.941,0.176,0.16
42:29.7,-0.941,0.176,0.156
42:29.7,-0.941,0.188,0.148
42:29.7,-0.945,0.195,0.145
42:29.7,-0.949,0.211,0.145
42:29.7,-0.949,0.219,0.148
42:29.7,-0.945,0.227,0.148
42:29.7,-0.941,0.227,0.156
42:29.7,-0.945,0.223,0.156
42:29.7,-0.949,0.219,0.156
42:29.8,-0.945,0.211,0.156
42:29.8,-0.941,0.203,0.16
42:29.8,-0.941,0.207,0.152
42:29.8,-0.941,0.215,0.145
42:29.8,-0.941,0.227,0.141
42:29.8,-0.949,0.238,0.137
42:29.8,-0.957,0.246,0.125
42:29.8,-0.957,0.254,0.125
42:29.8,-0.953,0.262,0.121
42:29.8,-0.953,0.273,0.117
42:29.9,-0.953,0.281,0.137
42:29.9,-0.949,0.277,0.152
42:29.9,-0.945,0.27,0.168
42:29.9,-0.941,0.262,0.188
42:29.9,-0.953,0.258,0.219
42:29.9,-0.965,0.242,0.242
42:29.9,-0.973,0.246,0.262
42:29.9,-0.98,0.25,0.273
42:29.9,-0.977,0.25,0.289
42:29.9,-0.98,0.254,0.305
42:30.0,-0.996,0.254,0.32
42:30.0,-1.004,0.262,0.336
42:30.0,-1.004,0.27,0.359
42:30.0,-0.996,0.277,0.391
42:30.0,-1,0.293,0.426
42:30.0,-0.996,0.305,0.453
42:30.0,-1.012,0.316,0.473
42:30.0,-1.02,0.332,0.488
42:30.0,-1.027,0.344,0.516
42:30.0,-1.035,0.359,0.551
42:30.1,-1.043,0.383,0.582
42:30.1,-1.055,0.414,0.609
42:30.1,-1.074,0.434,0.625
42:30.1,-1.082,0.449,0.648
42:30.1,-1.094,0.453,0.676
42:30.1,-1.113,0.445,0.699
42:30.1,-1.141,0.441,0.715
42:30.1,-1.156,0.449,0.734
42:30.1,-1.156,0.453,0.754
42:30.1,-1.152,0.457,0.777
42:30.2,-1.148,0.453,0.809
42:30.2,-1.172,0.457,0.828
42:30.2,-1.203,0.449,0.844
42:30.2,-1.23,0.441,0.855
42:30.2,-1.242,0.438,0.863
42:30.2,-1.242,0.43,0.863
42:30.2,-1.238,0.418,0.867
42:30.2,-1.234,0.422,0.871
42:30.2,-1.23,0.426,0.883
42:30.2,-1.227,0.43,0.891
42:30.3,-1.234,0.434,0.895
42:30.3,-1.238,0.43,0.902
42:30.3,-1.234,0.418,0.898
42:30.3,-1.238,0.41,0.883
42:30.3,-1.238,0.402,0.859
42:30.3,-1.223,0.391,0.84
42:30.3,-1.203,0.387,0.836
42:30.3,-1.172,0.383,0.832
42:30.3,-1.148,0.379,0.832
42:30.3,-1.117,0.367,0.836
42:30.4,-1.078,0.371,0.84
42:30.4,-1.043,0.387,0.836
42:30.4,-1.004,0.414,0.816
42:30.4,-0.98,0.438,0.813
42:30.4,-0.957,0.457,0.805
42:30.4,-0.926,0.465,0.793
42:30.4,-0.902,0.457,0.777
42:30.4,-0.875,0.445,0.77
42:30.4,-0.828,0.441,0.77
42:30.4,-0.777,0.434,0.77
42:30.5,-0.738,0.434,0.77
42:30.5,-0.703,0.426,0.758
42:30.5,-0.676,0.418,0.754
42:30.5,-0.637,0.41,0.746
42:30.5,-0.609,0.402,0.742
42:30.5,-0.559,0.398,0.738
42:30.5,-0.516,0.398,0.734
42:30.5,-0.473,0.398,0.734
42:30.5,-0.434,0.395,0.727
42:30.6,-0.402,0.375,0.711
42:30.6,-0.367,0.352,0.691
42:30.6,-0.328,0.32,0.695
42:30.6,-0.273,0.285,0.691
42:30.6,-0.223,0.25,0.68
42:30.6,-0.184,0.219,0.672
42:30.6,-0.145,0.188,0.648
42:30.6,-0.098,0.188,0.629
42:30.6,-0.051,0.195,0.609
42:30.6,-0.012,0.211,0.582
42:30.6,0.027,0.23,0.566
42:30.7,0.074,0.242,0.563
42:30.7,0.117,0.25,0.555
42:30.7,0.152,0.246,0.539
42:30.7,0.184,0.219,0.531
42:30.7,0.223,0.18,0.527
42:30.7,0.258,0.164,0.504
42:30.7,0.293,0.156,0.488
42:30.7,0.328,0.156,0.469
42:30.7,0.359,0.156,0.461
42:30.7,0.395,0.172,0.457
42:30.8,0.43,0.191,0.457
42:30.8,0.453,0.188,0.453
42:30.8,0.477,0.176,0.457
42:30.8,0.504,0.164,0.453
42:30.8,0.531,0.148,0.457
42:30.8,0.547,0.137,0.449
42:30.8,0.563,0.133,0.453
42:30.8,0.582,0.141,0.449
42:30.8,0.598,0.145,0.445
42:30.8,0.613,0.152,0.438
42:30.9,0.625,0.152,0.426
42:30.9,0.645,0.148,0.418
42:30.9,0.668,0.137,0.41
42:30.9,0.684,0.129,0.398
42:30.9,0.695,0.121,0.391
42:30.9,0.711,0.113,0.391
42:30.9,0.723,0.098,0.383
42:30.9,0.73,0.086,0.375
42:30.9,0.746,0.074,0.367
42:30.9,0.762,0.074,0.359
42:31.0,0.777,0.082,0.352
42:31.0,0.793,0.094,0.336
42:31.0,0.805,0.09,0.324
42:31.0,0.816,0.082,0.309
42:31.0,0.809,0.07,0.293
42:31.0,0.816,0.07,0.289
42:31.0,0.824,0.07,0.277
42:31.0,0.832,0.07,0.258
42:31.0,0.836,0.055,0.23
42:31.0,0.84,0.035,0.207
42:31.1,0.848,0.027,0.188
42:31.1,0.863,0.027,0.176
42:31.1,0.871,0.02,0.148
42:31.1,0.875,-0.004,0.137
42:31.1,0.879,-0.02,0.117
42:31.1,0.875,-0.02,0.098
42:31.1,0.867,-0.02,0.074
42:31.1,0.844,-0.016,0.043
42:31.1,0.82,-0.027,0
42:31.1,0.813,-0.063,-0.039
42:31.2,0.84,-0.109,-0.07
42:31.2,0.871,-0.148,-0.07
42:31.2,0.871,-0.191,-0.059
42:31.2,0.855,-0.234,-0.043
42:31.2,0.848,-0.258,-0.035
42:31.2,0.844,-0.254,-0.039
42:31.2,0.836,-0.223,-0.059
42:31.2,0.836,-0.18,-0.066
42:31.2,0.84,-0.133,-0.055
42:31.3,0.84,-0.109,-0.031
42:31.3,0.84,-0.102,0
42:31.3,0.84,-0.09,0.035
42:31.3,0.82,-0.059,0.051
42:31.3,0.805,-0.02,0.066
42:31.3,0.789,0.012,0.082
42:31.3,0.773,0.035,0.113
42:31.3,0.762,0.043,0.156
42:31.3,0.754,0.051,0.207
42:31.3,0.73,0.043,0.25
42:31.3,0.703,0.035,0.27
42:31.4,0.684,0.043,0.273
42:31.4,0.684,0.063,0.273
42:31.4,0.684,0.102,0.289
42:31.4,0.672,0.141,0.324
42:31.4,0.645,0.164,0.355
42:31.4,0.598,0.156,0.379
42:31.4,0.527,0.129,0.383
42:31.4,0.465,0.102,0.391
42:31.4,0.453,0.09,0.395
42:31.4,0.5,0.098,0.422
42:31.5,0.543,0.105,0.457
42:31.5,0.516,0.105,0.484
42:31.5,0.457,0.094,0.52
42:31.5,0.406,0.074,0.547
42:31.5,0.359,0.066,0.551
42:31.5,0.352,0.063,0.551
42:31.5,0.355,0.094,0.547
42:31.5,0.344,0.145,0.539
42:31.5,0.313,0.18,0.535
42:31.5,0.289,0.195,0.559
42:31.6,0.273,0.199,0.59
42:31.6,0.25,0.211,0.625
42:31.6,0.215,0.238,0.645
42:31.6,0.176,0.254,0.648
42:31.6,0.121,0.254,0.66
42:31.6,0.09,0.25,0.691
42:31.6,0.07,0.254,0.73
42:31.6,0.066,0.27,0.773
42:31.6,0.055,0.289,0.805
42:31.6,0.02,0.301,0.801
42:31.7,-0.035,0.293,0.781
42:31.7,-0.078,0.281,0.781
42:31.7,-0.098,0.277,0.797
42:31.7,-0.094,0.289,0.84
42:31.7,-0.102,0.32,0.871
42:31.7,-0.137,0.348,0.898
42:31.7,-0.191,0.363,0.906
42:31.7,-0.23,0.379,0.922
42:31.7,-0.238,0.395,0.957
42:31.7,-0.223,0.418,0.992
42:31.8,-0.238,0.449,1.008
42:31.8,-0.277,0.469,1.012
42:31.8,-0.34,0.469,1.012
42:31.8,-0.398,0.441,1.02
42:31.8,-0.422,0.422,1.039
42:31.8,-0.426,0.43,1.051
42:31.8,-0.449,0.449,1.07
42:31.8,-0.477,0.461,1.09
42:31.8,-0.504,0.477,1.105
42:31.8,-0.523,0.484,1.098
42:31.9,-0.539,0.488,1.082
42:31.9,-0.551,0.5,1.082
42:31.9,-0.559,0.504,1.102
42:31.9,-0.574,0.512,1.113
42:31.9,-0.594,0.516,1.117
42:31.9,-0.613,0.508,1.105
42:31.9,-0.625,0.504,1.074
42:31.9,-0.645,0.504,1.02
42:31.9,-0.691,0.523,0.977
42:31.9,-0.734,0.508,0.996
42:32.0,-0.715,0.48,1.063
42:32.0,-0.684,0.465,1.098
42:32.0,-0.668,0.477,1.094
42:32.0,-0.695,0.504,1.055
42:32.0,-0.746,0.531,1
42:32.0,-0.77,0.539,0.949
42:32.0,-0.797,0.531,0.918
42:32.0,-0.82,0.504,0.91
42:32.0,-0.84,0.48,0.914
42:32.0,-0.836,0.453,0.926
42:32.1,-0.809,0.438,0.938
42:32.1,-0.781,0.434,0.926
42:32.1,-0.781,0.441,0.887
42:32.1,-0.801,0.453,0.848
42:32.1,-0.828,0.453,0.824
42:32.1,-0.832,0.441,0.813
42:32.1,-0.836,0.422,0.816
42:32.1,-0.824,0.406,0.828
42:32.1,-0.789,0.391,0.828
42:32.1,-0.762,0.383,0.809
42:32.2,-0.758,0.391,0.785
42:32.2,-0.773,0.395,0.758
42:32.2,-0.793,0.383,0.715
42:32.2,-0.82,0.363,0.672
42:32.2,-0.836,0.355,0.645
42:32.2,-0.824,0.355,0.629
42:32.2,-0.809,0.363,0.621
42:32.2,-0.793,0.375,0.629
42:32.2,-0.789,0.375,0.641
42:32.2,-0.789,0.371,0.641
42:32.3,-0.793,0.371,0.621
42:32.3,-0.805,0.383,0.59
42:32.3,-0.824,0.387,0.563
42:32.3,-0.84,0.395,0.539
42:32.3,-0.852,0.406,0.523
42:32.3,-0.855,0.414,0.535
42:32.3,-0.859,0.41,0.543
42:32.3,-0.867,0.414,0.555
42:32.3,-0.875,0.422,0.559
42:32.3,-0.887,0.43,0.555
42:32.4,-0.898,0.438,0.543
42:32.4,-0.906,0.441,0.531
42:32.4,-0.914,0.449,0.531
42:32.4,-0.926,0.441,0.527
42:32.4,-0.938,0.41,0.539
42:32.4,-0.941,0.371,0.559
42:32.4,-0.941,0.332,0.582
42:32.4,-0.926,0.301,0.594
42:32.4,-0.91,0.285,0.582
42:32.4,-0.902,0.289,0.555
42:32.5,-0.895,0.301,0.535
42:32.5,-0.895,0.281,0.543
42:32.5,-0.91,0.25,0.551
42:32.5,-0.945,0.234,0.535
42:32.5,-0.969,0.246,0.469
42:32.5,-0.953,0.285,0.406
42:32.5,-0.934,0.309,0.348
42:32.5,-0.918,0.316,0.313
42:32.5,-0.914,0.316,0.281
42:32.5,-0.906,0.32,0.25
42:32.6,-0.906,0.332,0.223
42:32.6,-0.91,0.352,0.199
42:32.6,-0.914,0.383,0.18
42:32.6,-0.91,0.402,0.168
42:32.6,-0.902,0.402,0.164
42:32.6,-0.887,0.387,0.156
42:32.6,-0.879,0.367,0.148
42:32.6,-0.879,0.348,0.141
42:32.6,-0.887,0.324,0.137
42:32.6,-0.898,0.285,0.129
42:32.7,-0.906,0.262,0.133
42:32.7,-0.914,0.234,0.125
42:32.7,-0.922,0.223,0.121
42:32.7,-0.926,0.223,0.117
42:32.7,-0.934,0.227,0.117
42:32.7,-0.938,0.227,0.113
42:32.7,-0.945,0.223,0.113
42:32.7,-0.941,0.219,0.121
42:32.7,-0.941,0.215,0.129
42:32.8,-0.93,0.203,0.141
42:32.8,-0.918,0.195,0.164
42:32.8,-0.926,0.188,0.188
42:32.8,-0.941,0.184,0.191
42:32.8,-0.961,0.195,0.199
42:32.8,-0.969,0.223,0.207
42:32.8,-0.973,0.27,0.203
42:32.8,-0.973,0.316,0.191
42:32.8,-0.969,0.352,0.176
42:32.8,-0.961,0.363,0.172
42:32.8,-0.957,0.355,0.16
42:32.9,-0.957,0.348,0.145
42:32.9,-0.961,0.328,0.129
42:32.9,-0.973,0.301,0.117
42:32.9,-0.973,0.285,0.113
42:32.9,-0.969,0.277,0.109
42:32.9,-0.961,0.273,0.113
42:32.9,-0.961,0.266,0.105
42:32.9,-0.969,0.258,0.102
42:32.9,-0.973,0.238,0.102
42:32.9,-0.965,0.227,0.102
42:33.0,-0.957,0.219,0.105
42:33.0,-0.949,0.199,0.113
42:33.0,-0.938,0.195,0.121
42:33.0,-0.941,0.199,0.125
42:33.0,-0.953,0.207,0.121
42:33.0,-0.949,0.215,0.125
42:33.0,-0.961,0.219,0.113
42:33.0,-0.973,0.219,0.105
42:33.0,-0.98,0.219,0.102
42:33.0,-0.98,0.219,0.105
42:33.1,-0.977,0.215,0.109
42:33.1,-0.973,0.211,0.109
42:33.1,-0.965,0.211,0.105
42:33.1,-0.965,0.215,0.105
42:33.1,-0.969,0.203,0.105
42:33.1,-0.973,0.184,0.113
42:33.1,-0.973,0.168,0.117
42:33.1,-0.969,0.156,0.117
42:33.1,-0.965,0.152,0.121
42:33.1,-0.965,0.152,0.121
42:33.2,-0.965,0.156,0.121
42:33.2,-0.957,0.168,0.125
42:33.2,-0.961,0.18,0.133
42:33.2,-0.969,0.191,0.129
42:33.2,-0.965,0.207,0.125
42:33.2,-0.953,0.223,0.121
42:33.2,-0.957,0.23,0.125
42:33.2,-0.949,0.223,0.133
42:33.2,-0.945,0.215,0.133
42:33.2,-0.953,0.199,0.137
42:33.3,-0.957,0.191,0.145
42:33.3,-0.957,0.184,0.141
42:33.3,-0.953,0.176,0.141
42:33.3,-0.949,0.168,0.141
42:33.3,-0.945,0.168,0.137
42:33.3,-0.941,0.184,0.137
42:33.3,-0.945,0.207,0.141
42:33.3,-0.953,0.219,0.141
42:33.3,-0.953,0.23,0.137
42:33.3,-0.945,0.238,0.125
42:33.4,-0.945,0.238,0.102
42:33.4,-0.938,0.25,0.082
42:33.4,-0.938,0.258,0.074
42:33.4,-0.934,0.273,0.07
42:33.4,-0.938,0.285,0.066
42:33.4,-0.938,0.289,0.07
42:33.4,-0.941,0.281,0.074
42:33.4,-0.949,0.266,0.086
42:33.4,-0.961,0.254,0.098
42:33.5,-0.969,0.23,0.109
42:33.5,-0.973,0.215,0.121
42:33.5,-0.973,0.199,0.117
42:33.5,-0.965,0.191,0.109
42:33.5,-0.945,0.188,0.105
42:33.5,-0.941,0.191,0.102
42:33.5,-0.93,0.195,0.105
42:33.5,-0.922,0.207,0.098
42:33.5,-0.926,0.215,0.102
42:33.5,-0.934,0.215,0.105
42:33.5,-0.949,0.203,0.117
42:33.6,-0.965,0.191,0.129
42:33.6,-0.973,0.195,0.137
42:33.6,-0.977,0.199,0.141
42:33.6,-0.977,0.207,0.145
42:33.6,-0.977,0.215,0.145
42:33.6,-0.977,0.215,0.145
42:33.6,-0.969,0.211,0.137
42:33.6,-0.961,0.215,0.133
42:33.6,-0.961,0.227,0.133
42:33.6,-0.961,0.227,0.133
42:33.7,-0.961,0.234,0.129
42:33.7,-0.957,0.246,0.121
42:33.7,-0.953,0.246,0.121
42:33.7,-0.953,0.242,0.113
42:33.7,-0.957,0.242,0.105
42:33.7,-0.957,0.238,0.105
42:33.7,-0.949,0.238,0.105
42:33.7,-0.945,0.238,0.105
42:33.7,-0.949,0.234,0.105
42:33.7,-0.945,0.23,0.105
42:33.8,-0.953,0.223,0.105
42:33.8,-0.957,0.219,0.113
42:33.8,-0.953,0.215,0.117
42:33.8,-0.945,0.203,0.117
42:33.8,-0.949,0.199,0.117
42:33.8,-0.957,0.199,0.121
42:33.8,-0.957,0.195,0.121
42:33.8,-0.961,0.188,0.121
42:33.8,-0.957,0.199,0.117
42:33.8,-0.949,0.191,0.125
42:33.9,-0.945,0.188,0.129
42:33.9,-0.945,0.191,0.125
42:33.9,-0.949,0.191,0.117
42:33.9,-0.961,0.191,0.117
42:33.9,-0.969,0.188,0.117
42:33.9,-0.969,0.199,0.117
42:33.9,-0.965,0.211,0.113
42:33.9,-0.957,0.219,0.109
42:33.9,-0.949,0.227,0.105
42:33.9,-0.945,0.234,0.102
42:34.0,-0.945,0.234,0.105
42:34.0,-0.941,0.23,0.105
42:34.0,-0.949,0.234,0.109
42:34.0,-0.957,0.227,0.109
42:34.0,-0.973,0.223,0.113
42:34.0,-0.965,0.219,0.117
42:34.0,-0.961,0.219,0.113
42:34.0,-0.965,0.219,0.113
42:34.0,-0.965,0.215,0.113
42:34.0,-0.961,0.211,0.109
42:34.1,-0.973,0.211,0.105
42:34.1,-0.973,0.211,0.105
42:34.1,-0.973,0.207,0.102
42:34.1,-0.973,0.199,0.102
42:34.1,-0.973,0.191,0.098
42:34.1,-0.969,0.188,0.102
42:34.1,-0.961,0.188,0.105
42:34.1,-0.953,0.188,0.109
42:34.1,-0.949,0.195,0.113
42:34.1,-0.945,0.191,0.121
42:34.2,-0.945,0.203,0.129
42:34.2,-0.945,0.215,0.129
42:34.2,-0.949,0.223,0.125
42:34.2,-0.945,0.234,0.125
42:34.2,-0.945,0.242,0.129
42:34.2,-0.945,0.254,0.125
42:34.2,-0.945,0.258,0.121
42:34.2,-0.949,0.266,0.117
42:34.2,-0.953,0.262,0.113
42:34.2,-0.949,0.254,0.109
42:34.3,-0.949,0.254,0.105
42:34.3,-0.949,0.246,0.105
42:34.3,-0.945,0.238,0.109
42:34.3,-0.953,0.227,0.109
42:34.3,-0.949,0.223,0.109
42:34.3,-0.953,0.219,0.109
42:34.3,-0.953,0.215,0.113
42:34.3,-0.957,0.211,0.113
42:34.3,-0.953,0.215,0.109
42:34.3,-0.957,0.215,0.109
42:34.4,-0.957,0.219,0.105
42:34.4,-0.961,0.223,0.109
42:34.4,-0.957,0.219,0.109
42:34.4,-0.953,0.227,0.109
42:34.4,-0.949,0.23,0.109
42:34.4,-0.945,0.234,0.113
42:34.4,-0.945,0.234,0.113
42:34.4,-0.953,0.234,0.109
42:34.4,-0.949,0.23,0.109
42:34.4,-0.953,0.23,0.109
42:34.5,-0.949,0.223,0.113
42:34.5,-0.945,0.227,0.117
42:34.5,-0.941,0.223,0.117
42:34.5,-0.941,0.23,0.117
42:34.5,-0.961,0.234,0.117
42:34.5,-0.957,0.227,0.121
42:34.5,-0.957,0.234,0.109
42:34.5,-0.953,0.238,0.109
42:34.5,-0.945,0.242,0.109
42:34.5,-0.941,0.246,0.109
42:34.6,-0.941,0.25,0.109
42:34.6,-0.945,0.242,0.113
42:34.6,-0.945,0.238,0.113
42:34.6,-0.941,0.234,0.117
42:34.6,-0.949,0.227,0.117
42:34.6,-0.949,0.223,0.117
42:34.6,-0.949,0.227,0.113
42:34.6,-0.961,0.223,0.113
42:34.6,-0.961,0.223,0.113
42:34.6,-0.961,0.223,0.109
42:34.7,-0.961,0.227,0.109
42:34.7,-0.961,0.23,0.105
42:34.7,-0.961,0.223,0.105
42:34.7,-0.957,0.223,0.105
42:34.7,-0.949,0.223,0.113
42:34.7,-0.949,0.219,0.113
42:34.7,-0.953,0.215,0.109
42:34.7,-0.957,0.215,0.109
42:34.7,-0.957,0.215,0.109
42:34.7,-0.953,0.207,0.109
42:34.8,-0.949,0.215,0.113
42:34.8,-0.949,0.211,0.117
42:34.8,-0.949,0.215,0.113
42:34.8,-0.957,0.219,0.117
42:34.8,-0.953,0.223,0.113
42:34.8,-0.953,0.227,0.121
42:34.8,-0.953,0.234,0.117
42:34.8,-0.953,0.238,0.117
42:34.8,-0.949,0.238,0.117
42:34.8,-0.945,0.238,0.117
42:34.9,-0.949,0.23,0.121
42:34.9,-0.953,0.234,0.121
42:34.9,-0.949,0.227,0.121
42:34.9,-0.949,0.227,0.117
42:34.9,-0.953,0.227,0.117
42:34.9,-0.953,0.23,0.113
42:34.9,-0.953,0.234,0.109
42:34.9,-0.957,0.234,0.109
42:34.9,-0.949,0.238,0.109
42:34.9,-0.949,0.234,0.113
42:35.0,-0.945,0.227,0.121
42:35.0,-0.941,0.227,0.121
42:35.0,-0.953,0.23,0.117
42:35.0,-0.953,0.23,0.121
42:35.0,-0.961,0.23,0.121
42:35.0,-0.953,0.227,0.125
42:35.0,-0.953,0.227,0.117
42:35.0,-0.949,0.227,0.109
42:35.0,-0.945,0.23,0.113
42:35.0,-0.945,0.23,0.113
42:35.1,-0.949,0.23,0.113
42:35.1,-0.953,0.234,0.109
42:35.1,-0.953,0.23,0.113
42:35.1,-0.949,0.227,0.113
42:35.1,-0.949,0.223,0.121
42:35.1,-0.945,0.227,0.121
42:35.1,-0.945,0.223,0.121
42:35.1,-0.949,0.223,0.121
42:35.1,-0.957,0.23,0.117
42:35.1,-0.957,0.23,0.117
42:35.2,-0.957,0.234,0.117
42:35.2,-0.953,0.238,0.113
42:35.2,-0.949,0.246,0.113
42:35.2,-0.949,0.242,0.109
42:35.2,-0.949,0.242,0.113
42:35.2,-0.945,0.23,0.121
42:35.2,-0.945,0.23,0.125
42:35.2,-0.945,0.227,0.121
42:35.2,-0.945,0.227,0.117
42:35.2,-0.945,0.227,0.117
42:35.3,-0.945,0.227,0.117
42:35.3,-0.945,0.23,0.117
42:35.3,-0.945,0.234,0.121
42:35.3,-0.945,0.242,0.121
42:35.3,-0.949,0.23,0.117
42:35.3,-0.949,0.223,0.113
42:35.3,-0.949,0.223,0.117
42:35.3,-0.945,0.223,0.117
42:35.3,-0.945,0.23,0.121
42:35.3,-0.953,0.227,0.121
42:35.4,-0.957,0.227,0.121
42:35.4,-0.953,0.227,0.117
42:35.4,-0.945,0.227,0.121
42:35.4,-0.949,0.234,0.117
42:35.4,-0.957,0.234,0.117
42:35.4,-0.957,0.238,0.117
42:35.4,-0.953,0.238,0.117
42:35.4,-0.949,0.238,0.121
42:35.4,-0.945,0.238,0.125
42:35.4,-0.953,0.227,0.125
42:35.5,-0.953,0.227,0.125
42:35.5,-0.945,0.227,0.129
42:35.5,-0.941,0.223,0.129
42:35.5,-0.945,0.223,0.125
42:35.5,-0.957,0.227,0.121
42:35.5,-0.949,0.223,0.129
42:35.5,-0.953,0.223,0.117
42:35.5,-0.961,0.223,0.121
42:35.5,-0.957,0.223,0.117
42:35.5,-0.957,0.223,0.117
42:35.6,-0.957,0.223,0.125
42:35.6,-0.961,0.223,0.125
42:35.6,-0.961,0.223,0.117
42:35.6,-0.953,0.223,0.121
42:35.6,-0.953,0.223,0.129
42:35.6,-0.945,0.223,0.133
42:35.6,-0.941,0.223,0.129
42:35.6,-0.949,0.223,0.125
42:35.6,-0.957,0.227,0.125
42:35.7,-0.957,0.23,0.125
42:35.7,-0.949,0.23,0.121
42:35.7,-0.949,0.234,0.121
42:35.7,-0.945,0.234,0.125
42:35.7,-0.945,0.234,0.129
42:35.7,-0.945,0.238,0.133
42:35.7,-0.949,0.238,0.125
42:35.7,-0.957,0.234,0.121
42:35.7,-0.953,0.23,0.117
42:35.7,-0.953,0.23,0.121
42:35.7,-0.949,0.234,0.125
42:35.8,-0.945,0.23,0.129
42:35.8,-0.941,0.234,0.129
42:35.8,-0.941,0.227,0.129
42:35.8,-0.957,0.223,0.125
42:35.8,-0.965,0.223,0.121
42:35.8,-0.961,0.223,0.121
42:35.8,-0.949,0.227,0.121
42:35.8,-0.949,0.23,0.125
42:35.8,-0.949,0.238,0.121
42:35.8,-0.945,0.242,0.121
42:35.9,-0.945,0.242,0.129
42:35.9,-0.941,0.23,0.129
42:35.9,-0.941,0.219,0.129
42:35.9,-0.949,0.211,0.129
42:35.9,-0.945,0.215,0.129
42:35.9,-0.945,0.223,0.125
42:35.9,-0.953,0.223,0.129
42:35.9,-0.949,0.227,0.133
42:35.9,-0.953,0.223,0.133
42:35.9,-0.953,0.227,0.133
42:36.0,-0.953,0.23,0.133
42:36.0,-0.953,0.223,0.129
42:36.0,-0.953,0.223,0.133
42:36.0,-0.949,0.219,0.133
42:36.0,-0.957,0.219,0.137
42:36.0,-0.949,0.215,0.137
42:36.0,-0.953,0.219,0.137
42:36.0,-0.957,0.219,0.133
42:36.0,-0.953,0.227,0.129
42:36.0,-0.953,0.23,0.133
42:36.1,-0.961,0.234,0.133
42:36.1,-0.961,0.234,0.137
42:36.1,-0.957,0.234,0.129
42:36.1,-0.953,0.234,0.121
42:36.1,-0.949,0.227,0.125
42:36.1,-0.949,0.219,0.125
42:36.1,-0.941,0.219,0.129
42:36.1,-0.945,0.219,0.133
42:36.1,-0.953,0.219,0.137
42:36.1,-0.953,0.223,0.137
42:36.2,-0.953,0.223,0.133
42:36.2,-0.949,0.219,0.133
42:36.2,-0.953,0.219,0.133
42:36.2,-0.949,0.219,0.133
42:36.2,-0.945,0.223,0.133
42:36.2,-0.945,0.223,0.133
42:36.2,-0.945,0.227,0.129
42:36.2,-0.949,0.223,0.133
42:36.2,-0.949,0.223,0.137
42:36.2,-0.945,0.223,0.133
42:36.3,-0.945,0.223,0.133
42:36.3,-0.941,0.223,0.133
42:36.3,-0.945,0.219,0.137
42:36.3,-0.949,0.215,0.137
42:36.3,-0.949,0.219,0.137
42:36.3,-0.945,0.223,0.137
42:36.3,-0.949,0.23,0.133
42:36.3,-0.949,0.23,0.133
42:36.3,-0.949,0.23,0.137
42:36.4,-0.945,0.227,0.137
42:36.4,-0.941,0.227,0.137
42:36.4,-0.945,0.219,0.137
42:36.4,-0.953,0.215,0.137
42:36.4,-0.949,0.211,0.137
42:36.4,-0.949,0.215,0.137
42:36.4,-0.945,0.215,0.137
42:36.4,-0.941,0.219,0.137
42:36.4,-0.941,0.227,0.137
42:36.4,-0.945,0.23,0.137
42:36.4,-0.949,0.23,0.137
42:36.5,-0.945,0.234,0.133
42:36.5,-0.945,0.23,0.137
42:36.5,-0.953,0.227,0.137
42:36.5,-0.953,0.227,0.137
42:36.5,-0.957,0.23,0.129
42:36.5,-0.949,0.223,0.137
42:36.5,-0.945,0.223,0.133
42:36.5,-0.945,0.219,0.133
42:36.5,-0.941,0.223,0.137
42:36.5,-0.945,0.219,0.137
42:36.6,-0.949,0.219,0.137
42:36.6,-0.953,0.215,0.137
42:36.6,-0.953,0.215,0.137
42:36.6,-0.949,0.215,0.137
42:36.6,-0.945,0.219,0.137
42:36.6,-0.949,0.215,0.137
42:36.6,-0.961,0.215,0.129
42:36.6,-0.961,0.215,0.133
42:36.6,-0.957,0.215,0.133
42:36.6,-0.949,0.219,0.137
42:36.7,-0.949,0.219,0.137
42:36.7,-0.949,0.219,0.137
42:36.7,-0.945,0.219,0.137
42:36.7,-0.945,0.219,0.137
42:36.7,-0.941,0.219,0.137
42:36.7,-0.949,0.219,0.137
42:36.7,-0.945,0.223,0.133
42:36.7,-0.949,0.23,0.133
42:36.7,-0.945,0.234,0.133
42:36.7,-0.941,0.227,0.133
42:36.8,-0.949,0.223,0.133
42:36.8,-0.953,0.219,0.137
42:36.8,-0.949,0.219,0.137
42:36.8,-0.945,0.215,0.133
42:36.8,-0.949,0.215,0.137
42:36.8,-0.949,0.211,0.137
42:36.8,-0.953,0.215,0.133
42:36.8,-0.957,0.211,0.137
42:36.8,-0.953,0.215,0.133
42:36.8,-0.949,0.215,0.133
42:36.9,-0.953,0.219,0.133
42:36.9,-0.953,0.227,0.129
42:36.9,-0.953,0.223,0.133
42:36.9,-0.945,0.223,0.137
42:36.9,-0.949,0.219,0.137
42:36.9,-0.949,0.219,0.137
42:36.9,-0.953,0.219,0.137
42:36.9,-0.961,0.219,0.137
42:36.9,-0.961,0.219,0.133
42:36.9,-0.957,0.219,0.137
42:37.0,-0.949,0.219,0.129
42:37.0,-0.949,0.219,0.129
42:37.0,-0.941,0.219,0.125
42:37.0,-0.945,0.223,0.129
42:37.0,-0.953,0.219,0.125
42:37.0,-0.945,0.215,0.133
42:37.0,-0.945,0.211,0.129
42:37.0,-0.949,0.215,0.133
42:37.0,-0.953,0.227,0.125
42:37.0,-0.949,0.223,0.121
42:37.1,-0.945,0.215,0.129
42:37.1,-0.941,0.223,0.129
42:37.1,-0.941,0.223,0.133
42:37.1,-0.941,0.223,0.137
42:37.1,-0.953,0.219,0.137
42:37.1,-0.961,0.219,0.137
42:37.1,-0.961,0.227,0.137
42:37.1,-0.961,0.23,0.133
42:37.1,-0.961,0.234,0.125
42:37.1,-0.953,0.246,0.121
42:37.2,-0.957,0.246,0.121
42:37.2,-0.949,0.246,0.125
42:37.2,-0.945,0.238,0.129
42:37.2,-0.945,0.23,0.129
42:37.2,-0.949,0.227,0.129
42:37.2,-0.949,0.223,0.133
42:37.2,-0.949,0.219,0.133
42:37.2,-0.953,0.219,0.129
42:37.2,-0.949,0.219,0.129
42:37.2,-0.949,0.223,0.125
42:37.3,-0.953,0.23,0.121
42:37.3,-0.953,0.227,0.121
42:37.3,-0.949,0.227,0.121
42:37.3,-0.949,0.223,0.125
42:37.3,-0.949,0.219,0.125
42:37.3,-0.953,0.219,0.129
42:37.3,-0.953,0.219,0.133
42:37.3,-0.957,0.219,0.129
42:37.3,-0.961,0.219,0.129
42:37.3,-0.957,0.223,0.133
42:37.4,-0.961,0.227,0.129
42:37.4,-0.961,0.227,0.129
42:37.4,-0.957,0.23,0.133
42:37.4,-0.957,0.227,0.133
42:37.4,-0.953,0.223,0.129
42:37.4,-0.945,0.223,0.129
42:37.4,-0.949,0.215,0.129
42:37.4,-0.957,0.211,0.133
42:37.4,-0.953,0.211,0.137
42:37.4,-0.957,0.207,0.141
42:37.5,-0.957,0.211,0.141
42:37.5,-0.961,0.211,0.141
42:37.5,-0.965,0.215,0.141
42:37.5,-0.965,0.211,0.141
42:37.5,-0.977,0.211,0.137
42:37.5,-0.969,0.203,0.148
42:37.5,-0.957,0.195,0.137
42:37.5,-0.953,0.199,0.129
42:37.5,-0.957,0.188,0.129
42:37.5,-0.949,0.18,0.133
42:37.6,-0.949,0.164,0.137
42:37.6,-0.957,0.152,0.145
42:37.6,-0.953,0.141,0.152
42:37.6,-0.961,0.125,0.156
42:37.6,-0.957,0.129,0.148
42:37.6,-0.949,0.145,0.145
42:37.6,-0.953,0.152,0.145
42:37.6,-0.957,0.164,0.145
42:37.6,-0.961,0.188,0.152
42:37.6,-0.965,0.184,0.164
42:37.7,-0.961,0.18,0.172
42:37.7,-0.957,0.172,0.172
42:37.7,-0.957,0.18,0.172
42:37.7,-0.957,0.188,0.172
42:37.7,-0.965,0.191,0.172
42:37.7,-0.965,0.199,0.168
42:37.7,-0.973,0.207,0.172
42:37.7,-0.977,0.195,0.176
42:37.7,-0.973,0.195,0.184
42:37.7,-0.973,0.188,0.18
42:37.8,-0.965,0.18,0.18
42:37.8,-0.957,0.176,0.18
42:37.8,-0.949,0.168,0.18
42:37.8,-0.945,0.16,0.18
42:37.8,-0.945,0.156,0.18
42:37.8,-0.945,0.152,0.188
42:37.8,-0.941,0.148,0.199
42:37.8,-0.941,0.148,0.199
42:37.8,-0.941,0.148,0.203
42:37.9,-0.945,0.152,0.203
42:37.9,-0.945,0.152,0.195
42:37.9,-0.953,0.152,0.191
42:37.9,-0.961,0.16,0.18
42:37.9,-0.965,0.164,0.184
42:37.9,-0.965,0.164,0.18
42:37.9,-0.965,0.168,0.176
42:37.9,-0.961,0.168,0.176
42:37.9,-0.961,0.164,0.176
42:37.9,-0.957,0.156,0.176
42:37.9,-0.953,0.156,0.176
42:38.0,-0.957,0.156,0.18
42:38.0,-0.961,0.156,0.176
42:38.0,-0.965,0.148,0.176
42:38.0,-0.969,0.141,0.176
42:38.0,-0.98,0.125,0.176
42:38.0,-0.977,0.113,0.18
42:38.0,-0.977,0.113,0.18
42:38.0,-0.977,0.113,0.184
42:38.0,-0.977,0.117,0.18
42:38.0,-0.977,0.117,0.176
42:38.1,-0.977,0.113,0.172
42:38.1,-0.977,0.109,0.164
42:38.1,-0.977,0.117,0.16
42:38.1,-0.973,0.113,0.145
42:38.1,-0.969,0.117,0.137
42:38.1,-0.953,0.125,0.121
42:38.1,-0.945,0.133,0.109
42:38.1,-0.938,0.145,0.102
42:38.1,-0.93,0.145,0.086
42:38.1,-0.93,0.152,0.078
42:38.2,-0.93,0.152,0.07
42:38.2,-0.934,0.156,0.063
42:38.2,-0.949,0.18,0.051
42:38.2,-0.965,0.207,0.039
42:38.2,-0.98,0.227,0.035
42:38.2,-0.98,0.219,0.043
42:38.2,-0.973,0.195,0.055
42:38.2,-0.957,0.172,0.059
42:38.2,-0.938,0.156,0.063
42:38.2,-0.926,0.141,0.066
42:38.3,-0.922,0.133,0.07
42:38.3,-0.934,0.125,0.07
42:38.3,-0.941,0.129,0.07
42:38.3,-0.953,0.137,0.074
42:38.3,-0.965,0.141,0.09
42:38.3,-0.98,0.152,0.098
42:38.3,-0.996,0.164,0.105
42:38.3,-1.016,0.172,0.105
42:38.3,-1.035,0.188,0.113
42:38.3,-1.039,0.211,0.109
42:38.4,-1.035,0.23,0.113
42:38.4,-1.02,0.25,0.117
42:38.4,-1,0.262,0.117
42:38.4,-0.98,0.258,0.117
42:38.4,-0.965,0.254,0.117
42:38.4,-0.949,0.242,0.125
42:38.4,-0.938,0.23,0.129
42:38.4,-0.922,0.223,0.137
42:38.4,-0.914,0.219,0.145
42:38.4,-0.91,0.223,0.156
42:38.5,-0.902,0.219,0.16
42:38.5,-0.898,0.219,0.168
42:38.5,-0.898,0.211,0.176
42:38.5,-0.902,0.203,0.176
42:38.5,-0.918,0.211,0.176
42:38.5,-0.914,0.203,0.176
42:38.5,-0.91,0.203,0.168
42:38.5,-0.902,0.203,0.156
42:38.5,-0.906,0.191,0.148
42:38.6,-0.91,0.195,0.141
42:38.6,-0.918,0.188,0.137
42:38.6,-0.938,0.184,0.133
42:38.6,-0.953,0.18,0.129
42:38.6,-0.965,0.18,0.121
42:38.6,-0.977,0.184,0.117
42:38.6,-0.992,0.176,0.117
42:38.6,-1.004,0.168,0.117
42:38.6,-1.016,0.168,0.117
42:38.6,-1.023,0.172,0.117
42:38.6,-1.027,0.164,0.113
42:38.7,-1.031,0.176,0.113
42:38.7,-1.035,0.176,0.121
42:38.7,-1.047,0.18,0.129
42:38.7,-1.059,0.184,0.133
42:38.7,-1.078,0.184,0.133
42:38.7,-1.094,0.184,0.137
42:38.7,-1.105,0.191,0.148
42:38.7,-1.105,0.207,0.156
42:38.7,-1.098,0.215,0.156
42:38.7,-1.094,0.219,0.168
42:38.8,-1.113,0.227,0.172
42:38.8,-1.16,0.234,0.188
42:38.8,-1.227,0.234,0.207
42:38.8,-1.27,0.242,0.215
42:38.8,-1.273,0.25,0.246
42:38.8,-1.23,0.254,0.273
42:38.8,-1.164,0.25,0.309
42:38.8,-1.082,0.242,0.336
42:38.8,-1.012,0.23,0.363
42:38.8,-0.949,0.223,0.375
42:38.9,-0.891,0.207,0.379
42:38.9,-0.855,0.184,0.375
42:38.9,-0.844,0.164,0.359
42:38.9,-0.859,0.148,0.336
42:38.9,-0.902,0.129,0.313
42:38.9,-0.953,0.113,0.281
42:38.9,-1.012,0.094,0.25
42:38.9,-1.074,0.063,0.223
42:38.9,-1.121,0.035,0.199
42:38.9,-1.16,0.008,0.191
42:39.0,-1.172,-0.016,0.195
42:39.0,-1.152,-0.023,0.195
42:39.0,-1.113,-0.027,0.203
42:39.0,-1.063,-0.008,0.203
42:39.0,-1.023,0.016,0.211
42:39.0,-0.977,0.023,0.223
42:39.0,-0.934,0.027,0.227
42:39.0,-0.898,0.043,0.227
42:39.0,-0.855,0.074,0.227
42:39.0,-0.816,0.102,0.219
42:39.1,-0.777,0.133,0.207
42:39.1,-0.746,0.16,0.191
42:39.1,-0.715,0.184,0.172
42:39.1,-0.699,0.207,0.152
42:39.1,-0.691,0.23,0.133
42:39.1,-0.688,0.238,0.125
42:39.1,-0.688,0.242,0.117
42:39.1,-0.676,0.246,0.109
42:39.1,-0.668,0.258,0.098
42:39.1,-0.664,0.27,0.094
42:39.2,-0.664,0.273,0.102
42:39.2,-0.66,0.258,0.125
42:39.2,-0.66,0.238,0.145
42:39.2,-0.664,0.234,0.156
42:39.2,-0.672,0.262,0.164
42:39.2,-0.676,0.293,0.172
42:39.2,-0.684,0.309,0.188
42:39.2,-0.688,0.297,0.199
42:39.2,-0.707,0.289,0.203
42:39.2,-0.73,0.293,0.219
42:39.3,-0.785,0.273,0.242
42:39.3,-0.836,0.23,0.289
42:39.3,-0.898,0.156,0.398
42:39.3,-0.996,0.051,0.598
42:39.3,-1.098,-0.098,0.836
42:39.3,-1.148,-0.184,1.008
42:39.3,-1.164,0.039,0.992
42:39.3,-1.168,0.352,0.891
42:39.3,-1.121,0.547,0.746
42:39.3,-1.055,0.551,0.602
42:39.4,-0.98,0.461,0.508
42:39.4,-0.93,0.352,0.426
42:39.4,-0.949,0.277,0.34
42:39.4,-1.02,0.258,0.254
42:39.4,-1.102,0.297,0.18
42:39.4,-1.199,0.344,0.141
42:39.4,-1.309,0.352,0.121
42:39.4,-1.383,0.336,0.121
42:39.4,-1.387,0.32,0.129
42:39.4,-1.305,0.344,0.121
42:39.5,-1.207,0.395,0.074
42:39.5,-1.125,0.402,0.012
42:39.5,-1.059,0.379,-0.055
42:39.5,-0.992,0.328,-0.094
42:39.5,-0.949,0.27,-0.117
42:39.5,-0.922,0.207,-0.129
42:39.5,-0.91,0.172,-0.152
42:39.5,-0.906,0.141,-0.16
42:39.5,-0.906,0.121,-0.16
42:39.5,-0.902,0.102,-0.16
42:39.6,-0.902,0.086,-0.133
42:39.6,-0.91,0.066,-0.09
42:39.6,-0.922,0.039,-0.043
42:39.6,-0.938,0.035,0
42:39.6,-0.941,0.039,0.031
42:39.6,-0.941,0.043,0.055
42:39.6,-0.926,0.055,0.066
42:39.6,-0.902,0.059,0.07
42:39.6,-0.891,0.063,0.07
42:39.6,-0.867,0.063,0.066
42:39.7,-0.848,0.063,0.055
42:39.7,-0.824,0.074,0.051
42:39.7,-0.801,0.078,0.043
42:39.7,-0.789,0.09,0.039
42:39.7,-0.785,0.105,0.039
42:39.7,-0.793,0.129,0.035
42:39.7,-0.816,0.152,0.031
42:39.7,-0.832,0.18,0.035
42:39.7,-0.859,0.191,0.035
42:39.7,-0.891,0.211,0.035
42:39.8,-0.918,0.223,0.043
42:39.8,-0.953,0.234,0.047
42:39.8,-0.977,0.246,0.047
42:39.8,-0.996,0.238,0.055
42:39.8,-1.004,0.23,0.063
42:39.8,-1.004,0.219,0.07
42:39.8,-1.008,0.199,0.078
42:39.8,-1,0.18,0.09
42:39.8,-1,0.164,0.098
42:39.8,-0.996,0.156,0.102
42:39.9,-0.996,0.148,0.109
42:39.9,-1,0.141,0.117
42:39.9,-1.004,0.129,0.121
42:39.9,-1.008,0.129,0.129
42:39.9,-1.016,0.137,0.137
42:39.9,-1.02,0.145,0.152
42:39.9,-1.02,0.148,0.156
42:39.9,-1.016,0.152,0.16
42:39.9,-1.016,0.152,0.168
42:39.9,-1.012,0.148,0.18
42:40.0,-1.012,0.137,0.184
42:40.0,-1.016,0.133,0.188
42:40.0,-1.027,0.129,0.191
42:40.0,-1.035,0.125,0.195
42:40.0,-1.043,0.125,0.203
42:40.0,-1.039,0.125,0.223
42:40.0,-1.031,0.129,0.238
42:40.0,-1.031,0.141,0.254
42:40.0,-1.027,0.145,0.27
42:40.0,-1.016,0.152,0.289
42:40.1,-1.008,0.156,0.301
42:40.1,-1.004,0.16,0.309
42:40.1,-1.008,0.164,0.32
42:40.1,-1.023,0.164,0.328
42:40.1,-1.023,0.168,0.336
42:40.1,-1.023,0.164,0.336
42:40.1,-1.035,0.156,0.328
42:40.1,-1.074,0.148,0.324
42:40.1,-1.137,0.145,0.32
42:40.1,-1.203,0.133,0.313
42:40.2,-1.246,0.133,0.313
42:40.2,-1.242,0.125,0.32
42:40.2,-1.18,0.121,0.336
42:40.2,-1.086,0.117,0.352
42:40.2,-0.996,0.102,0.363
42:40.2,-0.938,0.09,0.359
42:40.2,-0.891,0.074,0.348
42:40.2,-0.875,0.055,0.324
42:40.2,-0.879,0.02,0.289
42:40.2,-0.902,-0.008,0.273
42:40.3,-0.934,0,0.246
42:40.3,-0.957,0.031,0.227
42:40.3,-0.984,0.043,0.215
42:40.3,-1.016,0.047,0.207
42:40.3,-1.047,0.043,0.215
42:40.3,-1.059,0.043,0.219
42:40.3,-1.051,0.043,0.23
42:40.3,-1.023,0.047,0.238
42:40.3,-0.988,0.055,0.238
42:40.3,-0.949,0.066,0.227
42:40.4,-0.906,0.094,0.207
42:40.4,-0.859,0.141,0.18
42:40.4,-0.813,0.199,0.148
42:40.4,-0.766,0.242,0.117
42:40.4,-0.734,0.258,0.09
42:40.4,-0.715,0.242,0.07
42:40.4,-0.703,0.219,0.066
42:40.4,-0.711,0.215,0.055
42:40.4,-0.719,0.246,0.027
42:40.4,-0.723,0.281,0
42:40.5,-0.734,0.305,-0.016
42:40.5,-0.758,0.309,-0.016
42:40.5,-0.785,0.289,-0.008
42:40.5,-0.809,0.27,0.012
42:40.5,-0.836,0.27,0.02
42:40.5,-0.848,0.262,0.027
42:40.5,-0.852,0.27,0.039
42:40.5,-0.848,0.27,0.055
42:40.5,-0.844,0.27,0.07
42:40.5,-0.844,0.262,0.086
42:40.6,-0.844,0.258,0.098
42:40.6,-0.852,0.258,0.102
42:40.6,-0.867,0.258,0.102
42:40.6,-0.891,0.254,0.105
42:40.6,-0.93,0.254,0.109
42:40.6,-0.973,0.254,0.113
42:40.6,-1.012,0.246,0.117
42:40.6,-1.055,0.238,0.109
42:40.6,-1.098,0.23,0.102
42:40.6,-1.145,0.203,0.098
42:40.7,-1.188,0.16,0.059
42:40.7,-1.215,0.137,0.031
42:40.7,-1.207,0.09,0.043
42:40.7,-1.184,0,0.074
42:40.7,-1.148,-0.066,0.098
42:40.7,-1.109,-0.07,0.078
42:40.7,-1.086,-0.051,0.051
42:40.7,-1.078,-0.031,0.027
42:40.7,-1.07,-0.016,0.016
42:40.8,-1.059,0.004,0.016
42:40.8,-1.043,-0.012,0.023
42:40.8,-1.035,-0.055,0.047
42:40.8,-1.023,-0.098,0.07
42:40.8,-1.008,-0.109,0.082
42:40.8,-0.988,-0.102,0.086
42:40.8,-0.973,-0.098,0.09
42:40.8,-0.961,-0.09,0.086
42:40.8,-0.953,-0.07,0.086
42:40.8,-0.949,-0.039,0.066
42:40.8,-0.945,0.016,0.047
42:40.9,-0.941,0.063,0.02
42:40.9,-0.938,0.086,-0.012
42:40.9,-0.93,0.094,-0.027
42:40.9,-0.93,0.086,-0.047
42:40.9,-0.926,0.07,-0.078
42:40.9,-0.922,0.078,-0.117
42:40.9,-0.922,0.109,-0.172
42:40.9,-0.926,0.16,-0.223
42:40.9,-0.934,0.207,-0.262
42:40.9,-0.938,0.227,-0.277
42:41.0,-0.945,0.223,-0.285
42:41.0,-0.949,0.199,-0.281
42:41.0,-0.961,0.172,-0.262
42:41.0,-0.965,0.16,-0.25
42:41.0,-0.984,0.16,-0.238
42:41.0,-0.988,0.152,-0.211
42:41.0,-0.992,0.145,-0.191
42:41.0,-0.988,0.133,-0.184
42:41.0,-0.984,0.137,-0.168
42:41.0,-0.98,0.137,-0.152
42:41.1,-0.988,0.141,-0.137
42:41.1,-1,0.137,-0.105
42:41.1,-1.016,0.129,-0.086
42:41.1,-1.023,0.125,-0.055
42:41.1,-1.023,0.121,-0.012
42:41.1,-1.035,0.121,0.016
42:41.1,-1.043,0.133,0.039
42:41.1,-1.055,0.164,0.051
42:41.1,-1.063,0.18,0.066
42:41.1,-1.078,0.168,0.098
42:41.2,-1.09,0.141,0.133
42:41.2,-1.094,0.133,0.156
42:41.2,-1.086,0.148,0.16
42:41.2,-1.078,0.18,0.145
42:41.2,-1.07,0.211,0.117
42:41.2,-1.055,0.23,0.094
42:41.2,-1.047,0.246,0.07
42:41.2,-1.039,0.258,0.051
42:41.2,-1.027,0.266,0.027
42:41.2,-1.02,0.254,0.004
42:41.3,-1.012,0.215,-0.016
42:41.3,-1.008,0.18,-0.027
42:41.3,-1.008,0.152,-0.035
42:41.3,-1.008,0.137,-0.039
42:41.3,-1.008,0.129,-0.051
42:41.3,-1.004,0.125,-0.059
42:41.3,-1.004,0.129,-0.066
42:41.3,-1,0.125,-0.074
42:41.3,-0.996,0.125,-0.078
42:41.3,-0.98,0.125,-0.09
42:41.4,-0.973,0.121,-0.094
42:41.4,-0.977,0.121,-0.102
42:41.4,-0.98,0.117,-0.113
42:41.4,-0.984,0.117,-0.121
42:41.4,-0.996,0.117,-0.133
42:41.4,-1.008,0.113,-0.137
42:41.4,-1.02,0.102,-0.133
42:41.4,-1.023,0.086,-0.125
42:41.4,-1.027,0.078,-0.121
42:41.4,-1.023,0.074,-0.121
42:41.5,-1.016,0.066,-0.117
42:41.5,-1.016,0.055,-0.113
42:41.5,-1.012,0.051,-0.109
42:41.5,-1.008,0.055,-0.102
42:41.5,-1,0.055,-0.098
42:41.5,-0.988,0.066,-0.086
42:41.5,-0.984,0.094,-0.086
42:41.5,-0.977,0.109,-0.07
42:41.5,-0.969,0.105,-0.043
42:41.5,-0.969,0.082,-0.008
42:41.6,-0.984,0.051,0.035
42:41.6,-0.996,0.02,0.082
42:41.6,-1,-0.012,0.129
42:41.6,-1,-0.043,0.172
42:41.6,-1,-0.074,0.207
42:41.6,-1.008,-0.098,0.234
42:41.6,-1.02,-0.102,0.242
42:41.6,-1.02,-0.078,0.227
42:41.6,-1.02,-0.043,0.207
42:41.6,-1.012,-0.004,0.184
42:41.7,-1.008,0.023,0.156
42:41.7,-0.996,0.039,0.129
42:41.7,-0.984,0.051,0.098
42:41.7,-0.977,0.07,0.07
42:41.7,-0.98,0.098,0.055
42:41.7,-0.984,0.117,0.039
42:41.7,-0.988,0.125,0.035
42:41.7,-0.988,0.129,0.043
42:41.7,-0.984,0.129,0.047
42:41.7,-0.98,0.129,0.055
42:41.8,-0.98,0.129,0.063
42:41.8,-0.977,0.141,0.063
42:41.8,-0.973,0.145,0.063
42:41.8,-0.973,0.145,0.063
42:41.8,-0.969,0.145,0.066
42:41.8,-0.957,0.148,0.074
42:41.8,-0.949,0.148,0.078
42:41.8,-0.949,0.148,0.09
42:41.8,-0.953,0.145,0.102
42:41.8,-0.953,0.148,0.113
42:41.9,-0.953,0.148,0.125
42:41.9,-0.945,0.148,0.133
42:41.9,-0.957,0.148,0.148
42:41.9,-0.965,0.137,0.156
42:41.9,-0.961,0.133,0.16
42:41.9,-0.961,0.137,0.164
42:41.9,-0.957,0.145,0.164
42:41.9,-0.949,0.145,0.16
42:41.9,-0.957,0.148,0.152
42:41.9,-0.969,0.141,0.152
42:42.0,-0.977,0.129,0.16
42:42.0,-0.984,0.121,0.168
42:42.0,-0.984,0.121,0.172
42:42.0,-0.98,0.109,0.176
42:42.0,-0.992,0.105,0.176
42:42.0,-0.992,0.094,0.18
42:42.0,-0.98,0.086,0.176
42:42.0,-0.98,0.082,0.168
42:42.0,-0.984,0.082,0.152
42:42.0,-0.984,0.086,0.141
42:42.1,-0.984,0.086,0.137
42:42.1,-0.984,0.09,0.133
42:42.1,-0.98,0.098,0.129
42:42.1,-0.977,0.105,0.125
42:42.1,-0.977,0.105,0.117
42:42.1,-0.98,0.109,0.109
42:42.1,-0.977,0.105,0.105
42:42.1,-0.977,0.109,0.105
42:42.1,-0.973,0.105,0.105
42:42.1,-0.973,0.098,0.113
42:42.2,-0.969,0.09,0.117
42:42.2,-0.953,0.094,0.121
42:42.2,-0.957,0.09,0.129
42:42.2,-0.961,0.102,0.133
42:42.2,-0.961,0.105,0.137
42:42.2,-0.961,0.098,0.145
42:42.2,-0.961,0.102,0.152
42:42.2,-0.965,0.102,0.164
42:42.2,-0.961,0.098,0.172
42:42.2,-0.957,0.105,0.168
42:42.3,-0.965,0.102,0.16
42:42.3,-0.969,0.102,0.164
42:42.3,-0.973,0.105,0.164
42:42.3,-0.973,0.109,0.16
42:42.3,-0.98,0.105,0.148
42:42.3,-0.984,0.105,0.145
42:42.3,-0.988,0.102,0.141
42:42.3,-0.988,0.098,0.137
42:42.3,-0.988,0.094,0.133
42:42.3,-0.996,0.094,0.137
42:42.4,-1,0.086,0.137
42:42.4,-1,0.09,0.141
42:42.4,-0.996,0.086,0.137
42:42.4,-0.992,0.09,0.133
42:42.4,-0.992,0.082,0.129
42:42.4,-0.984,0.082,0.133
42:42.4,-0.98,0.07,0.133
42:42.4,-0.977,0.066,0.137
42:42.4,-0.977,0.063,0.133
42:42.4,-0.98,0.063,0.133
42:42.5,-0.98,0.055,0.129
42:42.5,-0.988,0.051,0.133
42:42.5,-0.988,0.051,0.137
42:42.5,-0.988,0.051,0.137
42:42.5,-1,0.063,0.121
42:42.5,-0.996,0.055,0.133
42:42.5,-0.996,0.051,0.121
42:42.5,-1,0.051,0.125
42:42.5,-1.004,0.051,0.121
42:42.5,-1.004,0.055,0.125
42:42.6,-1,0.055,0.125
42:42.6,-0.996,0.055,0.125
42:42.6,-0.988,0.051,0.121
42:42.6,-0.98,0.059,0.121
42:42.6,-0.98,0.059,0.125
42:42.6,-0.977,0.055,0.121
42:42.6,-0.977,0.059,0.117
42:42.6,-0.977,0.059,0.117
42:42.6,-0.977,0.059,0.125
42:42.6,-0.977,0.051,0.121
42:42.7,-0.977,0.051,0.121
42:42.7,-0.977,0.047,0.121
42:42.7,-0.98,0.051,0.125
42:42.7,-0.992,0.055,0.125
42:42.7,-0.984,0.055,0.129
42:42.7,-0.984,0.055,0.133
42:42.7,-0.98,0.059,0.133
42:42.7,-0.98,0.063,0.133
42:42.7,-0.984,0.059,0.129
42:42.7,-0.988,0.066,0.125
42:42.8,-0.992,0.074,0.121
42:42.8,-0.984,0.078,0.121
42:42.8,-0.988,0.078,0.125
42:42.8,-0.988,0.078,0.117
42:42.8,-0.984,0.078,0.113
42:42.8,-0.98,0.078,0.113
42:42.8,-0.977,0.074,0.121
42:42.8,-0.977,0.07,0.121
42:42.8,-0.98,0.063,0.121
42:42.8,-0.98,0.055,0.121
42:42.9,-0.984,0.051,0.117
42:42.9,-0.98,0.055,0.113
42:42.9,-0.98,0.051,0.113
42:42.9,-0.984,0.059,0.109
42:42.9,-0.988,0.059,0.105
42:42.9,-1,0.059,0.105
42:42.9,-0.992,0.07,0.102
42:42.9,-0.992,0.07,0.102
42:42.9,-0.984,0.066,0.102
42:43.0,-0.98,0.063,0.105
42:43.0,-0.977,0.059,0.113
42:43.0,-0.98,0.059,0.113
42:43.0,-0.98,0.059,0.117
42:43.0,-0.98,0.059,0.125
42:43.0,-0.992,0.059,0.125
42:43.0,-0.988,0.055,0.121
42:43.0,-0.988,0.066,0.117
42:43.0,-0.98,0.063,0.125
42:43.0,-0.98,0.07,0.125
42:43.0,-0.977,0.066,0.125
42:43.1,-0.98,0.07,0.121
42:43.1,-0.984,0.07,0.117
42:43.1,-0.988,0.074,0.113
42:43.1,-0.992,0.07,0.113
42:43.1,-0.992,0.074,0.113
42:43.1,-0.992,0.078,0.113
42:43.1,-0.996,0.078,0.109
42:43.1,-0.988,0.082,0.109
42:43.1,-0.984,0.082,0.105
42:43.1,-0.98,0.078,0.109
42:43.2,-0.98,0.078,0.109
42:43.2,-0.98,0.078,0.105
42:43.2,-0.977,0.078,0.105
42:43.2,-0.98,0.078,0.109
42:43.2,-0.98,0.082,0.113
42:43.2,-0.984,0.09,0.113
42:43.2,-0.984,0.086,0.113
42:43.2,-0.988,0.086,0.121
42:43.2,-0.992,0.082,0.117
42:43.2,-0.992,0.082,0.117
42:43.3,-0.984,0.086,0.125
42:43.3,-0.98,0.082,0.129
42:43.3,-0.977,0.07,0.129
42:43.3,-0.977,0.07,0.133
42:43.3,-0.98,0.074,0.133
42:43.3,-0.98,0.074,0.129
42:43.3,-0.988,0.078,0.125
42:43.3,-0.996,0.078,0.121
42:43.3,-1.004,0.086,0.125
42:43.3,-1.004,0.082,0.117
42:43.4,-0.992,0.082,0.117
42:43.4,-0.992,0.086,0.117
42:43.4,-0.984,0.094,0.117
